Runs,thisN,thisTrialN,thisRepN,condition,fixationDuration,outcomeDelay,optcorrect,CBDrifts,CondOrder,trialOrder,advanceToTrigger.keys,advanceToTrigger.rt,advanceToTrigger.duration,key_resp_2.keys,key_resp_3.keys,key_resp_3.rt,key_resp_3.duration,optimalImg,suboptimalImg,optimalSide,suboptimalSide,optimalResponse,suboptimalResponse,leftImage,rightImage,startFixOnTime,cueOnTime,responseTime,cueOffTime,cueResp.keys,cueResp.corr,cueResp.rt,cueResp.duration,Choice,Accuracy,outcome,Feedback,trialChange,runningBankTotal,feedbackTime,feedbackOffTime,fixationTime,advanceScreenPress_2.keys,advanceScreenPress_2.rt,advanceScreenPress_2.duration,pracBlock.thisRepN,pracBlock.thisTrialN,pracBlock.thisN,pracBlock.thisIndex,runs.thisRepN,runs.thisTrialN,runs.thisN,runs.thisIndex,trials.thisRepN,trials.thisTrialN,trials.thisN,trials.thisIndex,runOffTime,thisRow.t,notes,pracDir.started,pracDirText.started,advanceScreenPress.started,pracDir.stopped,advanceScreenPress.keys,advanceScreenPress.rt,advanceScreenPress.duration,summaryDirections.started,summary.started,advanceScreenPress4.started,summaryDirections.stopped,advanceScreenPress4.keys,advanceScreenPress4.rt,advanceScreenPress4.duration,getReady.started,getReadyText.started,advanceToTrigger.started,getReady.stopped,runs.advanceToTrigger.keys,runs.advanceToTrigger.rt,runs.advanceToTrigger.duration,waitForScanner.started,text_2.started,key_resp_2.started,key_resp_3.started,waitForScanner.stopped,runs.key_resp_2.keys,runs.key_resp_3.keys,runs.key_resp_3.rt,runs.key_resp_3.duration,trials.optimalImg,trials.suboptimalImg,trials.optimalSide,trials.suboptimalSide,trials.optimalResponse,trials.suboptimalResponse,trials.leftImage,trials.rightImage,trials.startFixOnTime,cue.started,startFixStatic.started,frame1.started,staticISI.started,startFixStatic.stopped,leftCue.started,rightCue.started,cueResp.started,topFrameText.started,bottomFrameText.started,trials.cueOnTime,trials.responseTime,cue.stopped,trials.cueOffTime,trials.cueResp.keys,trials.cueResp.corr,trials.cueResp.rt,trials.cueResp.duration,outcomeDelayRoutine.started,frame1Fix.started,outcomeDelayFix.started,topFrameTextFix.started,bottomFrameTextFix.started,frame1Fix.stopped,outcomeDelayFix.stopped,topFrameTextFix.stopped,bottomFrameTextFix.stopped,outcomeDelayRoutine.stopped,trials.Choice,trials.Accuracy,trials.outcome,trials.Feedback,trials.trialChange,trials.runningBankTotal,trials.feedbackTime,outcomeRoutine.started,outcomeText.started,outcomeText.stopped,outcomeRoutine.stopped,trials.feedbackOffTime,trials.fixationTime,fixation.started,fixationCrosshair.started,fixationCrosshair.stopped,fixation.stopped,frame1.stopped,leftCue.stopped,rightCue.stopped,cueResp.stopped,topFrameText.stopped,bottomFrameText.stopped,trials.runOffTime,breakScreen.started,breakText.started,advanceScreenPress_2.started,breakScreen.stopped,runs.advanceScreenPress_2.keys,runs.advanceScreenPress_2.rt,runs.advanceScreenPress_2.duration,participant,session,vers,mriMode,practice,date,expName,psychopyVersion,frameRate,cuePairs,expStartTime,expStart,bank,
,,,,,,,,,,,,,,,,,,,,,,,,,,,,,,,,,,,,,,,,,,,,,,,,,,,,,,,,,,,,,0.012147875000664499,0.017432417000236455,0.017432417000236455,3.3013272499993036,space,3.2657887499990466,None,,,,,,,,,,,,,,,,,,,,,,,,,,,,,,,,,,,,,,,,,,,,,,,,,,,,,,,,,,,,,,,,,,,,,,,,,,,,,,,,,,,,,,,,,,,,546421,1,A,Scan,no,2025-03-20_10h04.58.677,reward_learning_task,2024.2.4,None,"{'highgain': {'optimalChoice': '1.png', 'suboptimalChoice': '2.png'}, 'lowgain': {'optimalChoice': '3.png', 'suboptimalChoice': '4.png'}, 'highloss': {'optimalChoice': '5.png', 'suboptimalChoice': '6.png'}, 'lowloss': {'optimalChoice': '7.png', 'suboptimalChoice': '8.png'}}",Thu Mar 20 10:05:06 2025,2025-03-20 10h05.06.178324 -0400,,
,,,,,,,,,,,,,,,,,,,,,,,,,,,,,,,,,,,,,,,,,,,,,,,,,,,,,,,,,,,,,,,,,,,,3.301630334000947,3.3118032090023917,3.3118032090023917,4.107746500001667,space,0.7926139999981388,None,,,,,,,,,,,,,,,,,,,,,,,,,,,,,,,,,,,,,,,,,,,,,,,,,,,,,,,,,,,,,,,,,,,,,,,,,,,,,,,,,,,,,546421,1,A,Scan,no,2025-03-20_10h04.58.677,reward_learning_task,2024.2.4,None,"{'highgain': {'optimalChoice': '1.png', 'suboptimalChoice': '2.png'}, 'lowgain': {'optimalChoice': '3.png', 'suboptimalChoice': '4.png'}, 'highloss': {'optimalChoice': '5.png', 'suboptimalChoice': '6.png'}, 'lowloss': {'optimalChoice': '7.png', 'suboptimalChoice': '8.png'}}",Thu Mar 20 10:05:06 2025,2025-03-20 10h05.06.178324 -0400,,
Run1,0,0,0,highloss,1.5,2.5,0,Drift3,1,1,space,0.6774167080002371,None,None,space,0.8449099579993344,None,5.png,6.png,left,right,1,2,images/5.png,images/6.png,5.702315458001976,6.21889316600209,6.644112500001938,8.703945208002551,1,1,0.41578820799986715,0.13561787499929778,1,1,False,0,-0.5,-0.5,11.20429625000179,12.204377083002328,12.204400291000638,,,,,,,,0,0,0,0,0,0,0,0,,5.6767235420011275,,,,,,,,,,,,,,,,4.113607041999785,4.121955709000758,4.121955709000758,4.804305375000695,space,0.6774167080002371,None,4.804364625000744,4.808720834000269,4.808720834000269,4.808720834000269,5.660365292002098,None,space,0.8449099579993344,None,5.png,6.png,left,right,1,2,images/5.png,images/6.png,5.702315458001976,5.673317875000066,5.6767235420011275,5.6767235420011275,0.012937250001414213,6.182908541999495,6.182908541999495,6.182908541999495,6.182908541999495,6.182908541999495,6.182908541999495,6.21889316600209,6.644112500001938,8.669580042002053,8.703945208002551,1,1,0.41578820799986715,0.13561787499929778,8.672110375002376,8.67610629200135,8.67610629200135,8.67610629200135,8.67610629200135,11.17534820900255,11.17534820900255,11.17534820900255,11.17534820900255,11.16988825000226,1,1,False,0,-0.5,-0.5,11.20429625000179,11.173107292001077,11.17534820900255,12.172414417000255,12.170005125000898,12.204377083002328,12.204400291000638,12.170065500002238,12.172414417000255,13.672717625002406,13.670061959001032,,,,,,,,,,,,,,,546421,1,A,Scan,no,2025-03-20_10h04.58.677,reward_learning_task,2024.2.4,None,"{'highgain': {'optimalChoice': '1.png', 'suboptimalChoice': '2.png'}, 'lowgain': {'optimalChoice': '3.png', 'suboptimalChoice': '4.png'}, 'highloss': {'optimalChoice': '5.png', 'suboptimalChoice': '6.png'}, 'lowloss': {'optimalChoice': '7.png', 'suboptimalChoice': '8.png'}}",Thu Mar 20 10:05:06 2025,2025-03-20 10h05.06.178324 -0400,-0.5,
Run1,1,1,0,highloss,1.0,2.0,1,Drift3,2,2,space,0.6774167080002371,None,None,space,0.8449099579993344,None,5.png,6.png,left,right,1,2,images/5.png,images/6.png,13.704965083001298,14.213614708001842,14.710374541002238,16.70695766600329,2,0,0.48028187499949127,0.18451908299903153,2,0,False,0,-0.5,-1.0,18.704370291001396,19.690656875001878,19.69067858300332,,,,,,,,0,0,0,0,0,1,1,1,,13.672717625002406,,,,,,,,,,,,,,,,,,,,,,,,,,,,,,,,5.png,6.png,left,right,1,2,images/5.png,images/6.png,13.704965083001298,13.670647041999473,13.672717625002406,13.672717625002406,0.0005736249986512121,14.177734125001734,14.177734125001734,14.177734125001734,14.177734125001734,14.177734125001734,14.177734125001734,14.213614708001842,14.710374541002238,16.672600417001377,16.70695766600329,2,0,0.48028187499949127,0.18451908299903153,16.67267004200039,16.68474816700109,16.68474816700109,16.68474816700109,16.68474816700109,18.671648792002088,18.671648792002088,18.671648792002088,18.671648792002088,18.669963750002353,2,0,False,0,-0.5,-1.0,18.704370291001396,18.670041334000416,18.671648792002088,19.66811245899953,19.656298000001698,19.690656875001878,19.69067858300332,19.656342292000772,19.66811245899953,20.659507625001424,20.65337720900061,16.671117124999,16.671117124999,16.671117124999,16.671117124999,16.671117124999,16.671117124999,,,,,,,,,546421,1,A,Scan,no,2025-03-20_10h04.58.677,reward_learning_task,2024.2.4,None,"{'highgain': {'optimalChoice': '1.png', 'suboptimalChoice': '2.png'}, 'lowgain': {'optimalChoice': '3.png', 'suboptimalChoice': '4.png'}, 'highloss': {'optimalChoice': '5.png', 'suboptimalChoice': '6.png'}, 'lowloss': {'optimalChoice': '7.png', 'suboptimalChoice': '8.png'}}",Thu Mar 20 10:05:06 2025,2025-03-20 10h05.06.178324 -0400,-1.0,
Run1,2,2,0,highgain,2.0,1.5,0,Drift1,1,3,space,0.6774167080002371,None,None,space,0.8449099579993344,None,1.png,2.png,right,left,2,1,images/2.png,images/1.png,20.688513708002574,21.20073683300143,21.7436153330018,23.69043429100202,1,0,0.5328589999990072,0.251604208999197,2,0,True,1,0.5,-0.5,25.187658750000992,26.187782166001853,26.187805166002363,,,,,,,,0,0,0,0,0,2,2,2,,20.659507625001424,,,,,,,,,,,,,,,,,,,,,,,,,,,,,,,,1.png,2.png,right,left,2,1,images/2.png,images/1.png,20.688513708002574,20.657535792001,20.659507625001424,20.659507625001424,0.004147084000578616,21.164790584000002,21.164790584000002,21.164790584000002,21.164790584000002,21.164790584000002,21.164790584000002,21.20073683300143,21.7436153330018,23.656076875002327,23.69043429100202,1,0,0.5328589999990072,0.251604208999197,23.65862458400079,23.66810445900046,23.66810445900046,23.66810445900046,23.66810445900046,25.1570613340009,25.1570613340009,25.1570613340009,25.1570613340009,25.15324079200218,2,0,True,1,0.5,-0.5,25.187658750000992,25.155259167000622,25.1570613340009,26.154994917000295,26.153422458999557,26.187782166001853,26.187805166002363,26.15347041700079,26.154994917000295,28.15148337500068,28.139858999998978,23.654589375000796,23.654589375000796,23.654589375000796,23.654589375000796,23.654589375000796,23.654589375000796,,,,,,,,,546421,1,A,Scan,no,2025-03-20_10h04.58.677,reward_learning_task,2024.2.4,None,"{'highgain': {'optimalChoice': '1.png', 'suboptimalChoice': '2.png'}, 'lowgain': {'optimalChoice': '3.png', 'suboptimalChoice': '4.png'}, 'highloss': {'optimalChoice': '5.png', 'suboptimalChoice': '6.png'}, 'lowloss': {'optimalChoice': '7.png', 'suboptimalChoice': '8.png'}}",Thu Mar 20 10:05:06 2025,2025-03-20 10h05.06.178324 -0400,-0.5,
Run1,3,3,0,highloss,1.5,1.5,1,Drift3,3,4,space,0.6774167080002371,None,None,space,0.8449099579993344,None,5.png,6.png,left,right,1,2,images/5.png,images/6.png,28.174716250003257,28.68636137500289,29.170918291001726,31.187354375000723,2,0,0.47059933300261036,0.17505216699646553,2,0,False,0,-0.5,-1.0,32.68767091600239,33.68777370800308,33.68779995800287,,,,,,,,0,0,0,0,0,3,3,3,,28.15148337500068,,,,,,,,,,,,,,,,,,,,,,,,,,,,,,,,5.png,6.png,left,right,1,2,images/5.png,images/6.png,28.174716250003257,28.143137709001167,28.15148337500068,28.15148337500068,0.003272457997809397,28.65038666699911,28.65038666699911,28.65038666699911,28.65038666699911,28.65038666699911,28.65038666699911,28.68636137500289,29.170918291001726,31.152996208998957,31.187354375000723,2,0,0.47059933300261036,0.17505216699646553,31.15557191699918,31.158020625000063,31.158020625000063,31.158020625000063,31.158020625000063,32.6566527089999,32.6566527089999,32.6566527089999,32.6566527089999,32.65326441700017,2,0,False,0,-0.5,-1.0,32.68767091600239,32.65463091700076,32.6566527089999,33.655009917001735,33.65341425000224,33.68777370800308,33.68779995800287,33.6534646250002,33.655009917001735,35.15147162500216,35.13981087499997,31.13777087500057,31.13777087500057,31.13777087500057,31.13777087500057,31.13777087500057,31.13777087500057,,,,,,,,,546421,1,A,Scan,no,2025-03-20_10h04.58.677,reward_learning_task,2024.2.4,None,"{'highgain': {'optimalChoice': '1.png', 'suboptimalChoice': '2.png'}, 'lowgain': {'optimalChoice': '3.png', 'suboptimalChoice': '4.png'}, 'highloss': {'optimalChoice': '5.png', 'suboptimalChoice': '6.png'}, 'lowloss': {'optimalChoice': '7.png', 'suboptimalChoice': '8.png'}}",Thu Mar 20 10:05:06 2025,2025-03-20 10h05.06.178324 -0400,-1.0,
Run1,4,4,0,lowloss,1.5,1.5,1,Drift4,1,5,space,0.6774167080002371,None,None,space,0.8449099579993344,None,7.png,8.png,left,right,1,2,images/7.png,images/8.png,35.17480004100071,35.6860247500008,36.344172250002885,38.18731541600209,2,0,0.6484837090029032,0.15533433299788157,2,0,False,0,-0.25,-1.25,39.68765733300097,40.68773937500009,40.68776279099984,,,,,,,,0,0,0,0,0,4,4,4,,35.15147162500216,,,,,,,,,,,,,,,,,,,,,,,,,,,,,,,,7.png,8.png,left,right,1,2,images/7.png,images/8.png,35.17480004100071,35.14260633400045,35.15147162500216,35.15147162500216,0.002787833000184037,35.65010125000117,35.65010125000117,35.65010125000117,35.65010125000117,35.65010125000117,35.65010125000117,35.6860247500008,36.344172250002885,38.15295695900204,38.18731541600209,2,0,0.6484837090029032,0.15533433299788157,38.15435837499899,38.15681866700106,38.15681866700106,38.15681866700106,38.15681866700106,39.657010834001994,39.657010834001994,39.657010834001994,39.657010834001994,39.65324862499983,2,0,False,0,-0.25,-1.25,39.68765733300097,39.65524179199929,39.657010834001994,40.65489700000035,40.65337979200194,40.68773937500009,40.68776279099984,40.65342837500066,40.65489700000035,42.151449459001014,42.139820167001744,38.13770745900183,38.13770745900183,38.13770745900183,38.13770745900183,38.13770745900183,38.13770745900183,,,,,,,,,546421,1,A,Scan,no,2025-03-20_10h04.58.677,reward_learning_task,2024.2.4,None,"{'highgain': {'optimalChoice': '1.png', 'suboptimalChoice': '2.png'}, 'lowgain': {'optimalChoice': '3.png', 'suboptimalChoice': '4.png'}, 'highloss': {'optimalChoice': '5.png', 'suboptimalChoice': '6.png'}, 'lowloss': {'optimalChoice': '7.png', 'suboptimalChoice': '8.png'}}",Thu Mar 20 10:05:06 2025,2025-03-20 10h05.06.178324 -0400,-1.25,
Run1,5,5,0,lowloss,1.5,2.0,1,Drift4,2,6,space,0.6774167080002371,None,None,space,0.8449099579993344,None,7.png,8.png,right,left,2,1,images/8.png,images/7.png,42.17484787500143,42.68336533300317,43.56050350000078,45.18728508300046,2,1,0.8714694160007639,0.1377809170007822,1,1,True,1,0,-1.25,47.1743834580011,48.17110995800249,48.171134000000166,,,,,,,,0,0,0,0,0,5,5,5,,42.151449459001014,,,,,,,,,,,,,,,,,,,,,,,,,,,,,,,,7.png,8.png,right,left,2,1,images/8.png,images/7.png,42.17484787500143,42.140529750002315,42.151449459001014,42.151449459001014,0.000696708000759827,42.64749716699953,42.64749716699953,42.64749716699953,42.64749716699953,42.64749716699953,42.64749716699953,42.68336533300317,43.56050350000078,45.15292587500153,45.18728508300046,2,1,0.8714694160007639,0.1377809170007822,45.15298895900196,45.15498466700228,45.15498466700228,45.15498466700228,45.15498466700228,47.151471459001186,47.151471459001186,47.151471459001186,47.151471459001186,47.13997174999895,1,1,True,1,0,-1.25,47.1743834580011,47.14160112500031,47.151471459001186,48.138327250002476,48.136750583998946,48.17110995800249,48.171134000000166,48.136798916999396,48.138327250002476,49.63480245900064,49.62330495900096,45.13774029200067,45.13774029200067,45.13774029200067,45.13774029200067,45.13774029200067,45.13774029200067,,,,,,,,,546421,1,A,Scan,no,2025-03-20_10h04.58.677,reward_learning_task,2024.2.4,None,"{'highgain': {'optimalChoice': '1.png', 'suboptimalChoice': '2.png'}, 'lowgain': {'optimalChoice': '3.png', 'suboptimalChoice': '4.png'}, 'highloss': {'optimalChoice': '5.png', 'suboptimalChoice': '6.png'}, 'lowloss': {'optimalChoice': '7.png', 'suboptimalChoice': '8.png'}}",Thu Mar 20 10:05:06 2025,2025-03-20 10h05.06.178324 -0400,-1.25,
Run1,6,6,0,lowgain,2.0,1.5,1,Drift2,1,7,space,0.6774167080002371,None,None,space,0.8449099579993344,None,3.png,4.png,left,right,1,2,images/3.png,images/4.png,49.65821012500237,50.16993900000307,51.32090962500297,52.67062837500271,2,0,1.1377059590013232,0.17897920799805433,2,0,False,0,0,-1.25,54.17101791599998,55.17111483300323,55.17113787500057,,,,,,,,0,0,0,0,0,6,6,6,,49.63480245900064,,,,,,,,,,,,,,,,,,,,,,,,,,,,,,,,3.png,4.png,left,right,1,2,images/3.png,images/4.png,49.65821012500237,49.62642174999928,49.63480245900064,49.63480245900064,0.003112417001830181,50.13405045900072,50.13405045900072,50.13405045900072,50.13405045900072,50.13405045900072,50.13405045900072,50.16993900000307,51.32090962500297,52.63626991700221,52.67062837500271,2,0,1.1377059590013232,0.17897920799805433,52.63870808399952,52.641110750002554,52.641110750002554,52.641110750002554,52.641110750002554,54.14014800000223,54.14014800000223,54.14014800000223,54.14014800000223,54.13660758400147,2,0,False,0,0,-1.25,54.17101791599998,54.13818179200098,54.14014800000223,55.13828866699987,55.136755667001125,55.17111483300323,55.17113787500057,55.136802667002485,55.13828866699987,57.13483358400117,57.123059666999325,52.62106904200118,52.62106904200118,52.62106904200118,52.62106904200118,52.62106904200118,52.62106904200118,,,,,,,,,546421,1,A,Scan,no,2025-03-20_10h04.58.677,reward_learning_task,2024.2.4,None,"{'highgain': {'optimalChoice': '1.png', 'suboptimalChoice': '2.png'}, 'lowgain': {'optimalChoice': '3.png', 'suboptimalChoice': '4.png'}, 'highloss': {'optimalChoice': '5.png', 'suboptimalChoice': '6.png'}, 'lowloss': {'optimalChoice': '7.png', 'suboptimalChoice': '8.png'}}",Thu Mar 20 10:05:06 2025,2025-03-20 10h05.06.178324 -0400,-1.25,
Run1,7,7,0,highloss,1.0,2.5,0,Drift3,4,8,space,0.6774167080002371,None,None,space,0.8449099579993344,None,5.png,6.png,right,left,2,1,images/6.png,images/5.png,57.15807329100062,57.66951133300245,58.59382525000183,60.170669375002035,1,0,0.9080530409992207,0.21873887499896227,2,0,True,1,0,-1.25,62.6711161250023,63.671125374999974,63.67114875000334,,,,,,,,0,0,0,0,0,7,7,7,,57.13483358400117,,,,,,,,,,,,,,,,,,,,,,,,,,,,,,,,5.png,6.png,right,left,2,1,images/6.png,images/5.png,57.15807329100062,57.12616312500177,57.13483358400117,57.13483358400117,0.0030946660008339677,57.633551458999136,57.633551458999136,57.633551458999136,57.633551458999136,57.633551458999136,57.633551458999136,57.66951133300245,58.59382525000183,60.13631033400088,60.170669375002035,1,0,0.9080530409992207,0.21873887499896227,60.13887629199962,60.14122637499895,60.14122637499895,60.14122637499895,60.14122637499895,62.640040792000946,62.640040792000946,62.640040792000946,62.640040792000946,62.63671054199949,2,0,True,1,0,-1.25,62.6711161250023,62.638116042002366,62.640040792000946,63.63836045900098,63.636766292001994,63.671125374999974,63.67114875000334,63.63681350000115,63.63836045900098,64.63487679199898,64.62304933400083,60.12114316700172,60.12114316700172,60.12114316700172,60.12114316700172,60.12114316700172,60.12114316700172,,,,,,,,,546421,1,A,Scan,no,2025-03-20_10h04.58.677,reward_learning_task,2024.2.4,None,"{'highgain': {'optimalChoice': '1.png', 'suboptimalChoice': '2.png'}, 'lowgain': {'optimalChoice': '3.png', 'suboptimalChoice': '4.png'}, 'highloss': {'optimalChoice': '5.png', 'suboptimalChoice': '6.png'}, 'lowloss': {'optimalChoice': '7.png', 'suboptimalChoice': '8.png'}}",Thu Mar 20 10:05:06 2025,2025-03-20 10h05.06.178324 -0400,-1.25,
Run1,8,8,0,highgain,1.5,2.0,1,Drift1,2,9,space,0.6774167080002371,None,None,space,0.8449099579993344,None,1.png,2.png,right,left,2,1,images/2.png,images/1.png,64.65801579100298,65.16950079100206,66.51055370800168,67.67063554100241,1,0,1.3260970410010486,0.21484029199928045,2,0,False,0,0,-1.25,69.67107145800037,70.67110983300154,70.67113129100107,,,,,,,,0,0,0,0,0,8,8,8,,64.63487679199898,,,,,,,,,,,,,,,,,,,,,,,,,,,,,,,,1.png,2.png,right,left,2,1,images/2.png,images/1.png,64.65801579100298,64.62606754200169,64.63487679199898,64.63487679199898,0.0030107079983281437,65.13360537500193,65.13360537500193,65.13360537500193,65.13360537500193,65.13360537500193,65.13360537500193,65.16950079100206,66.51055370800168,67.63627716699921,67.67063554100241,1,0,1.3260970410010486,0.21484029199928045,67.6388331670023,67.64126404200215,67.64126404200215,67.64126404200215,67.64126404200215,69.63986320900221,69.63986320900221,69.63986320900221,69.63986320900221,69.63665000000037,2,0,False,0,0,-1.25,69.67107145800037,69.63804175000041,69.63986320900221,70.63825595900198,70.63675154200246,70.67110983300154,70.67113129100107,70.63679491700168,70.63825595900198,72.13488845900065,72.1231503750023,67.6212594589997,67.6212594589997,67.6212594589997,67.6212594589997,67.6212594589997,67.6212594589997,,,,,,,,,546421,1,A,Scan,no,2025-03-20_10h04.58.677,reward_learning_task,2024.2.4,None,"{'highgain': {'optimalChoice': '1.png', 'suboptimalChoice': '2.png'}, 'lowgain': {'optimalChoice': '3.png', 'suboptimalChoice': '4.png'}, 'highloss': {'optimalChoice': '5.png', 'suboptimalChoice': '6.png'}, 'lowloss': {'optimalChoice': '7.png', 'suboptimalChoice': '8.png'}}",Thu Mar 20 10:05:06 2025,2025-03-20 10h05.06.178324 -0400,-1.25,
Run1,9,9,0,lowloss,1.5,1.5,1,Drift4,3,10,space,0.6774167080002371,None,None,space,0.8449099579993344,None,7.png,8.png,left,right,1,2,images/7.png,images/8.png,72.15803791600047,72.6699316660015,74.58751762500106,75.17065270800231,2,0,1.9052727910020621,0.1668458339991048,2,0,False,0,-0.25,-1.5,76.67111020800075,77.67114945800131,77.67117237500133,,,,,,,,0,0,0,0,0,9,9,9,,72.13488845900065,,,,,,,,,,,,,,,,,,,,,,,,,,,,,,,,7.png,8.png,left,right,1,2,images/7.png,images/8.png,72.15803791600047,72.12639741699968,72.13488845900065,72.13488845900065,0.0032471659978909884,72.63400920899949,72.63400920899949,72.63400920899949,72.63400920899949,72.63400920899949,72.63400920899949,72.6699316660015,74.58751762500106,75.13629429200228,75.17065270800231,2,0,1.9052727910020621,0.1668458339991048,75.13874412500081,75.14114629200049,75.14114629200049,75.14114629200049,75.14114629200049,76.64008812500106,76.64008812500106,76.64008812500106,76.64008812500106,76.63670291699964,2,0,False,0,-0.25,-1.5,76.67111020800075,76.63823229199988,76.64008812500106,77.63834033400053,77.63678970900219,77.67114945800131,77.67117237500133,77.63683720900008,77.63834033400053,79.13489041700086,79.12328079200233,75.1211988340001,75.1211988340001,75.1211988340001,75.1211988340001,75.1211988340001,75.1211988340001,,,,,,,,,546421,1,A,Scan,no,2025-03-20_10h04.58.677,reward_learning_task,2024.2.4,None,"{'highgain': {'optimalChoice': '1.png', 'suboptimalChoice': '2.png'}, 'lowgain': {'optimalChoice': '3.png', 'suboptimalChoice': '4.png'}, 'highloss': {'optimalChoice': '5.png', 'suboptimalChoice': '6.png'}, 'lowloss': {'optimalChoice': '7.png', 'suboptimalChoice': '8.png'}}",Thu Mar 20 10:05:06 2025,2025-03-20 10h05.06.178324 -0400,-1.5,
Run1,10,10,0,lowgain,1.0,2.5,0,Drift2,2,11,space,0.6774167080002371,None,None,space,0.8449099579993344,None,3.png,4.png,left,right,1,2,images/3.png,images/4.png,79.15812675000052,79.66958795800019,80.72708050000074,82.15795675000118,1,1,1.0473327500003506,0.18678791699858266,1,1,False,0,0,-1.5,84.65445254100268,85.65468704100203,85.65471133300161,,,,,,,,0,0,0,0,0,10,10,10,,79.13489041700086,,,,,,,,,,,,,,,,,,,,,,,,,,,,,,,,3.png,4.png,left,right,1,2,images/3.png,images/4.png,79.15812675000052,79.1262341670008,79.13489041700086,79.13489041700086,0.0029431249968183693,79.63366424999913,79.63366424999913,79.63366424999913,79.63366424999913,79.63366424999913,79.63366424999913,79.66958795800019,80.72708050000074,82.12359745900176,82.15795675000118,1,1,1.0473327500003506,0.18678791699858266,82.12591541700021,82.13489145900166,82.13489145900166,82.13489145900166,82.13489145900166,84.62344708399905,84.62344708399905,84.62344708399905,84.62344708399905,84.62004254199928,1,1,False,0,0,-1.5,84.65445254100268,84.62150275000022,84.62344708399905,85.62197154200112,85.62032729199927,85.65468704100203,85.65471133300161,85.62037620900082,85.62197154200112,86.61820504199932,86.60642308400202,82.12197158400159,82.12197158400159,82.12197158400159,82.12197158400159,82.12197158400159,82.12197158400159,,,,,,,,,546421,1,A,Scan,no,2025-03-20_10h04.58.677,reward_learning_task,2024.2.4,None,"{'highgain': {'optimalChoice': '1.png', 'suboptimalChoice': '2.png'}, 'lowgain': {'optimalChoice': '3.png', 'suboptimalChoice': '4.png'}, 'highloss': {'optimalChoice': '5.png', 'suboptimalChoice': '6.png'}, 'lowloss': {'optimalChoice': '7.png', 'suboptimalChoice': '8.png'}}",Thu Mar 20 10:05:06 2025,2025-03-20 10h05.06.178324 -0400,-1.5,
Run1,11,11,0,lowloss,1.5,2.5,1,Drift4,4,12,space,0.6774167080002371,None,None,space,0.8449099579993344,None,7.png,8.png,left,right,1,2,images/7.png,images/8.png,86.64127112500137,87.15263562500331,88.5105891250023,89.65404175000003,1,1,1.3411705830003484,0.1857560829994327,1,1,True,1,0,-1.5,92.15444508300061,93.15449241600072,93.15451424999992,,,,,,,,0,0,0,0,0,11,11,11,,86.61820504199932,,,,,,,,,,,,,,,,,,,,,,,,,,,,,,,,7.png,8.png,left,right,1,2,images/7.png,images/8.png,86.64127112500137,86.6094126249991,86.61820504199932,86.61820504199932,0.00297912499809172,87.11673758400138,87.11673758400138,87.11673758400138,87.11673758400138,87.11673758400138,87.11673758400138,87.15263562500331,88.5105891250023,89.61968362500193,89.65404175000003,1,1,1.3411705830003484,0.1857560829994327,89.62207812500128,89.62458004200016,89.62458004200016,89.62458004200016,89.62458004200016,92.1233302920009,92.1233302920009,92.1233302920009,92.1233302920009,92.12003862500205,1,1,True,1,0,-1.5,92.15444508300061,92.12142216700158,92.1233302920009,93.12170999999944,93.12013412500164,93.15449241600072,93.15451424999992,93.12017795900101,93.12170999999944,94.61823670900048,94.60655400000178,89.60464487500212,89.60464487500212,89.60464487500212,89.60464487500212,89.60464487500212,89.60464487500212,,,,,,,,,546421,1,A,Scan,no,2025-03-20_10h04.58.677,reward_learning_task,2024.2.4,None,"{'highgain': {'optimalChoice': '1.png', 'suboptimalChoice': '2.png'}, 'lowgain': {'optimalChoice': '3.png', 'suboptimalChoice': '4.png'}, 'highloss': {'optimalChoice': '5.png', 'suboptimalChoice': '6.png'}, 'lowloss': {'optimalChoice': '7.png', 'suboptimalChoice': '8.png'}}",Thu Mar 20 10:05:06 2025,2025-03-20 10h05.06.178324 -0400,-1.5,
Run1,12,12,0,highgain,1.5,2.0,1,Drift1,3,13,space,0.6774167080002371,None,None,space,0.8449099579993344,None,1.png,2.png,left,right,1,2,images/1.png,images/2.png,94.64140591600153,95.15317429100105,96.61064791600074,97.65407800000321,1,1,1.4484215420015971,0.2429950000005192,1,1,True,1,0.5,-1.0,99.6544114160024,100.65453216600145,100.65455462500177,,,,,,,,0,0,0,0,0,12,12,12,,94.61823670900048,,,,,,,,,,,,,,,,,,,,,,,,,,,,,,,,1.png,2.png,left,right,1,2,images/1.png,images/2.png,94.64140591600153,94.60965079200105,94.61823670900048,94.61823670900048,0.003100041998550296,95.11726266700134,95.11726266700134,95.11726266700134,95.11726266700134,95.11726266700134,95.11726266700134,95.15317429100105,96.61064791600074,97.61971900000208,97.65407800000321,1,1,1.4484215420015971,0.2429950000005192,97.62214304200097,97.62453683400236,97.62453683400236,97.62453683400236,97.62453683400236,99.62346495900056,99.62346495900056,99.62346495900056,99.62346495900056,99.61999158400067,1,1,True,1,0.5,-1.0,99.6544114160024,99.62153229199976,99.62346495900056,100.62174012499963,100.62017349999951,100.65453216600145,100.65455462500177,100.62021908400129,100.62174012499963,102.11824633400101,102.1065860000017,97.60449054200217,97.60449054200217,97.60449054200217,97.60449054200217,97.60449054200217,97.60449054200217,,,,,,,,,546421,1,A,Scan,no,2025-03-20_10h04.58.677,reward_learning_task,2024.2.4,None,"{'highgain': {'optimalChoice': '1.png', 'suboptimalChoice': '2.png'}, 'lowgain': {'optimalChoice': '3.png', 'suboptimalChoice': '4.png'}, 'highloss': {'optimalChoice': '5.png', 'suboptimalChoice': '6.png'}, 'lowloss': {'optimalChoice': '7.png', 'suboptimalChoice': '8.png'}}",Thu Mar 20 10:05:06 2025,2025-03-20 10h05.06.178324 -0400,-1.0,
Run1,13,13,0,highloss,1.0,2.5,1,Drift3,5,14,space,0.6774167080002371,None,None,space,0.8449099579993344,None,5.png,6.png,right,left,2,1,images/6.png,images/5.png,102.14143458300168,102.65274720800153,104.0438684159999,105.154096708,2,1,1.3849915409991809,0.1864050420008425,1,1,True,1,0,-1.0,107.65442995800186,108.65450770800089,108.65453058300045,,,,,,,,0,0,0,0,0,13,13,13,,102.11824633400101,,,,,,,,,,,,,,,,,,,,,,,,,,,,,,,,5.png,6.png,right,left,2,1,images/6.png,images/5.png,102.14143458300168,102.10942216699914,102.11824633400101,102.11824633400101,0.0028296250020503066,102.61680391700065,102.61680391700065,102.61680391700065,102.61680391700065,102.61680391700065,102.61680391700065,102.65274720800153,104.0438684159999,105.11973820899948,105.154096708,2,1,1.3849915409991809,0.1864050420008425,105.12215908399958,105.12462066700027,105.12462066700027,105.12462066700027,105.12462066700027,107.62325079199945,107.62325079199945,107.62325079199945,107.62325079199945,107.6200248339992,1,1,True,1,0,-1.0,107.65442995800186,107.62139916700107,107.62325079199945,108.62174779199995,108.62014916699991,108.65450770800089,108.65453058300045,108.62019537500237,108.62174779199995,109.61826441700032,109.60651883399987,105.1050842500008,105.1050842500008,105.1050842500008,105.1050842500008,105.1050842500008,105.1050842500008,,,,,,,,,546421,1,A,Scan,no,2025-03-20_10h04.58.677,reward_learning_task,2024.2.4,None,"{'highgain': {'optimalChoice': '1.png', 'suboptimalChoice': '2.png'}, 'lowgain': {'optimalChoice': '3.png', 'suboptimalChoice': '4.png'}, 'highloss': {'optimalChoice': '5.png', 'suboptimalChoice': '6.png'}, 'lowloss': {'optimalChoice': '7.png', 'suboptimalChoice': '8.png'}}",Thu Mar 20 10:05:06 2025,2025-03-20 10h05.06.178324 -0400,-1.0,
Run1,14,14,0,lowgain,2.0,1.5,1,Drift2,3,15,space,0.6774167080002371,None,None,space,0.8449099579993344,None,3.png,4.png,right,left,2,1,images/4.png,images/3.png,109.64134550000017,110.15246466600001,111.67104987499988,112.65412854100214,2,1,1.5053439580005943,0.16592075000153272,1,1,True,1,0.25,-0.75,114.15449291600089,115.1547215410028,115.15474729100242,,,,,,,,0,0,0,0,0,14,14,14,,109.61826441700032,,,,,,,,,,,,,,,,,,,,,,,,,,,,,,,,3.png,4.png,right,left,2,1,images/4.png,images/3.png,109.64134550000017,109.60935245899964,109.61826441700032,109.61826441700032,0.0028261249972274527,110.11656483399929,110.11656483399929,110.11656483399929,110.11656483399929,110.11656483399929,110.11656483399929,110.15246466600001,111.67104987499988,112.61977037500037,112.65412854100214,2,1,1.5053439580005943,0.16592075000153272,112.62219954200191,112.62458712499938,112.62458712499938,112.62458712499938,112.62458712499938,114.12341679200108,114.12341679200108,114.12341679200108,114.12341679200108,114.1200812499992,1,1,True,1,0.25,-0.75,114.15449291600089,114.12150666700109,114.12341679200108,115.12200674999985,115.12036270899989,115.1547215410028,115.15474729100242,115.12041170900193,115.12200674999985,117.11832004200187,117.10656945899973,112.60505891700086,112.60505891700086,112.60505891700086,112.60505891700086,112.60505891700086,112.60505891700086,,,,,,,,,546421,1,A,Scan,no,2025-03-20_10h04.58.677,reward_learning_task,2024.2.4,None,"{'highgain': {'optimalChoice': '1.png', 'suboptimalChoice': '2.png'}, 'lowgain': {'optimalChoice': '3.png', 'suboptimalChoice': '4.png'}, 'highloss': {'optimalChoice': '5.png', 'suboptimalChoice': '6.png'}, 'lowloss': {'optimalChoice': '7.png', 'suboptimalChoice': '8.png'}}",Thu Mar 20 10:05:06 2025,2025-03-20 10h05.06.178324 -0400,-0.75,
Run1,15,15,0,highgain,2.0,1.5,1,Drift1,4,16,space,0.6774167080002371,None,None,space,0.8449099579993344,None,1.png,2.png,left,right,1,2,images/1.png,images/2.png,117.14141483300045,117.65188237500115,118.73761895800271,120.15455770800327,2,0,1.0718451249995269,0.20233283400011715,2,0,False,0,0,-0.75,121.65451312500227,122.65456112500033,122.65458345800289,,,,,,,,0,0,0,0,0,15,15,15,,117.11832004200187,,,,,,,,,,,,,,,,,,,,,,,,,,,,,,,,1.png,2.png,left,right,1,2,images/1.png,images/2.png,117.14141483300045,117.10874637500092,117.11832004200187,117.11832004200187,0.0021685840001737233,117.61597162500038,117.61597162500038,117.61597162500038,117.61597162500038,117.61597162500038,117.61597162500038,117.65188237500115,118.73761895800271,120.12019862500165,120.15455770800327,2,0,1.0718451249995269,0.20233283400011715,120.12157379199925,120.12383595900246,120.12383595900246,120.12383595900246,120.12383595900246,121.62338487500165,121.62338487500165,121.62338487500165,121.62338487500165,121.62010716700024,2,0,False,0,0,-0.75,121.65451312500227,121.6215552499998,121.62338487500165,122.62172512500183,122.62020179200044,122.65456112500033,122.65458345800289,122.62024825000117,122.62172512500183,124.61832445899927,124.60748645900094,120.10452437500135,120.10452437500135,120.10452437500135,120.10452437500135,120.10452437500135,120.10452437500135,,,,,,,,,546421,1,A,Scan,no,2025-03-20_10h04.58.677,reward_learning_task,2024.2.4,None,"{'highgain': {'optimalChoice': '1.png', 'suboptimalChoice': '2.png'}, 'lowgain': {'optimalChoice': '3.png', 'suboptimalChoice': '4.png'}, 'highloss': {'optimalChoice': '5.png', 'suboptimalChoice': '6.png'}, 'lowloss': {'optimalChoice': '7.png', 'suboptimalChoice': '8.png'}}",Thu Mar 20 10:05:06 2025,2025-03-20 10h05.06.178324 -0400,-0.75,
Run1,16,16,0,highloss,1.5,2.0,1,Drift3,6,17,space,0.6774167080002371,None,None,space,0.8449099579993344,None,5.png,6.png,left,right,1,2,images/5.png,images/6.png,124.64234104100251,125.15338620800321,127.27781658300228,127.65441087500221,2,0,2.1171867919983924,0.17112716699921293,2,0,False,0,-0.5,-1.25,129.65440950000266,130.65451137499986,130.65453395800068,,,,,,,,0,0,0,0,0,16,16,16,,124.61832445899927,,,,,,,,,,,,,,,,,,,,,,,,,,,,,,,,5.png,6.png,left,right,1,2,images/5.png,images/6.png,124.64234104100251,124.61045412500243,124.61832445899927,124.61832445899927,0.0029619169981742743,125.117447042001,125.117447042001,125.117447042001,125.117447042001,125.117447042001,125.117447042001,125.15338620800321,127.27781658300228,127.62005008400229,127.65441087500221,2,0,2.1171867919983924,0.17112716699921293,127.62270391700076,127.62529779200122,127.62529779200122,127.62529779200122,127.62529779200122,129.62320454200017,129.62320454200017,129.62320454200017,129.62320454200017,129.62000258400076,2,0,False,0,-0.5,-1.25,129.65440950000266,129.62138304200198,129.62320454200017,130.62165787499907,130.62015054199946,130.65451137499986,130.65453395800068,130.62019879199943,130.62165787499907,132.11856945900217,132.1065326249991,127.60448733399971,127.60448733399971,127.60448733399971,127.60448733399971,127.60448733399971,127.60448733399971,,,,,,,,,546421,1,A,Scan,no,2025-03-20_10h04.58.677,reward_learning_task,2024.2.4,None,"{'highgain': {'optimalChoice': '1.png', 'suboptimalChoice': '2.png'}, 'lowgain': {'optimalChoice': '3.png', 'suboptimalChoice': '4.png'}, 'highloss': {'optimalChoice': '5.png', 'suboptimalChoice': '6.png'}, 'lowloss': {'optimalChoice': '7.png', 'suboptimalChoice': '8.png'}}",Thu Mar 20 10:05:06 2025,2025-03-20 10h05.06.178324 -0400,-1.25,
Run1,17,17,0,highloss,1.0,2.0,1,Drift3,7,18,space,0.6774167080002371,None,None,space,0.8449099579993344,None,5.png,6.png,left,right,1,2,images/5.png,images/6.png,132.14140858300016,132.64936020800087,133.87697091600057,135.15401575000215,1,1,1.2175066669988155,0.211073166999995,1,1,True,1,0,-1.25,137.14105675000246,138.13803950000147,138.1380605000013,,,,,,,,0,0,0,0,0,17,17,17,,132.11856945900217,,,,,,,,,,,,,,,,,,,,,,,,,,,,,,,,5.png,6.png,left,right,1,2,images/5.png,images/6.png,132.14140858300016,132.1070895840021,132.11856945900217,132.11856945900217,0.0005472090015246067,132.61343229200065,132.61343229200065,132.61343229200065,132.61343229200065,132.61343229200065,132.61343229200065,132.64936020800087,133.87697091600057,135.11965737500213,135.15401575000215,1,1,1.2175066669988155,0.211073166999995,135.1197199590024,135.12160104199938,135.12160104199938,135.12160104199938,135.12160104199938,137.11825545900138,137.11825545900138,137.11825545900138,137.11825545900138,137.10665295900253,1,1,True,1,0,-1.25,137.14105675000246,137.10818712499895,137.11825545900138,138.10526174999904,138.1036812500024,138.13803950000147,138.1380605000013,138.1037244170002,138.10526174999904,139.1016009590021,139.08977637499993,135.1045052920017,135.1045052920017,135.1045052920017,135.1045052920017,135.1045052920017,135.1045052920017,,,,,,,,,546421,1,A,Scan,no,2025-03-20_10h04.58.677,reward_learning_task,2024.2.4,None,"{'highgain': {'optimalChoice': '1.png', 'suboptimalChoice': '2.png'}, 'lowgain': {'optimalChoice': '3.png', 'suboptimalChoice': '4.png'}, 'highloss': {'optimalChoice': '5.png', 'suboptimalChoice': '6.png'}, 'lowloss': {'optimalChoice': '7.png', 'suboptimalChoice': '8.png'}}",Thu Mar 20 10:05:06 2025,2025-03-20 10h05.06.178324 -0400,-1.25,
Run1,18,18,0,lowloss,1.5,2.0,1,Drift4,5,19,space,0.6774167080002371,None,None,space,0.8449099579993344,None,7.png,8.png,right,left,2,1,images/8.png,images/7.png,139.12465562500074,139.6350717910027,140.544370333002,142.13747566600068,2,1,0.8921289999998407,0.17637749999994412,1,1,True,1,0,-1.25,144.13813845800178,145.12418858300225,145.1242084580008,,,,,,,,0,0,0,0,0,18,18,18,,139.1016009590021,,,,,,,,,,,,,,,,,,,,,,,,,,,,,,,,7.png,8.png,right,left,2,1,images/8.png,images/7.png,139.12465562500074,139.09206508400166,139.1016009590021,139.1016009590021,0.0022807499990449287,139.599137666999,139.599137666999,139.599137666999,139.599137666999,139.599137666999,139.599137666999,139.6350717910027,140.544370333002,142.10311729200112,142.13747566600068,2,1,0.8921289999998407,0.17637749999994412,142.1044880840018,142.10678962500242,142.10678962500242,142.10678962500242,142.10678962500242,144.10532629199952,144.10532629199952,144.10532629199952,144.10532629199952,144.10373554200123,1,1,True,1,0,-1.25,144.13813845800178,144.10381150000103,144.10532629199952,145.10159583399945,145.08983070899922,145.12418858300225,145.1242084580008,145.0898720840014,145.10159583399945,146.59182687499924,146.587032792002,142.08791254199969,142.08791254199969,142.08791254199969,142.08791254199969,142.08791254199969,142.08791254199969,,,,,,,,,546421,1,A,Scan,no,2025-03-20_10h04.58.677,reward_learning_task,2024.2.4,None,"{'highgain': {'optimalChoice': '1.png', 'suboptimalChoice': '2.png'}, 'lowgain': {'optimalChoice': '3.png', 'suboptimalChoice': '4.png'}, 'highloss': {'optimalChoice': '5.png', 'suboptimalChoice': '6.png'}, 'lowloss': {'optimalChoice': '7.png', 'suboptimalChoice': '8.png'}}",Thu Mar 20 10:05:06 2025,2025-03-20 10h05.06.178324 -0400,-1.25,
Run1,19,19,0,highgain,1.0,2.5,1,Drift1,5,20,space,0.6774167080002371,None,None,space,0.8449099579993344,None,1.png,2.png,right,left,2,1,images/2.png,images/1.png,146.62188500000047,147.13265079100165,148.12093508300313,149.62376337500245,1,0,0.974278375000722,0.23715945799995097,2,0,False,0,0,-1.25,152.1212435410016,153.12133479100157,153.12135720800143,,,,,,,,0,0,0,0,0,19,19,19,,146.59182687499924,,,,,,,,,,,,,,,,,,,,,,,,,,,,,,,,1.png,2.png,right,left,2,1,images/2.png,images/1.png,146.62188500000047,146.5898972920004,146.59182687499924,146.59182687499924,0.002857292001863243,147.09675912500097,147.09675912500097,147.09675912500097,147.09675912500097,147.09675912500097,147.09675912500097,147.13265079100165,148.12093508300313,149.5894060419996,149.62376337500245,1,0,0.974278375000722,0.23715945799995097,149.5918727089993,149.6016529590015,149.6016529590015,149.6016529590015,149.6016529590015,152.09017004199995,152.09017004199995,152.09017004199995,152.09017004199995,152.0868389999996,2,0,False,0,0,-1.25,152.1212435410016,152.08826929200222,152.09017004199995,153.08860966700013,153.0869749170015,153.12133479100157,153.12135720800143,153.08702175000144,153.08860966700013,154.08497504200204,154.07376800000202,149.58792358400024,149.58792358400024,149.58792358400024,149.58792358400024,149.58792358400024,149.58792358400024,,,,,,,,,546421,1,A,Scan,no,2025-03-20_10h04.58.677,reward_learning_task,2024.2.4,None,"{'highgain': {'optimalChoice': '1.png', 'suboptimalChoice': '2.png'}, 'lowgain': {'optimalChoice': '3.png', 'suboptimalChoice': '4.png'}, 'highloss': {'optimalChoice': '5.png', 'suboptimalChoice': '6.png'}, 'lowloss': {'optimalChoice': '7.png', 'suboptimalChoice': '8.png'}}",Thu Mar 20 10:05:06 2025,2025-03-20 10h05.06.178324 -0400,-1.25,
Run1,20,20,0,highgain,1.0,2.0,0,Drift1,6,21,space,0.6774167080002371,None,None,space,0.8449099579993344,None,1.png,2.png,left,right,1,2,images/1.png,images/2.png,154.10859545800122,154.61735229100304,155.55447750000167,157.12088100000256,1,1,0.923164915999223,0.1815111670002807,1,1,False,0,0,-1.25,159.10780541600252,160.10447258300337,160.10449391600196,,,,,,,,0,0,0,0,0,20,20,20,,154.08497504200204,,,,,,,,,,,,,,,,,,,,,,,,,,,,,,,,1.png,2.png,left,right,1,2,images/1.png,images/2.png,154.10859545800122,154.0742742500006,154.08497504200204,154.08497504200204,0.0004934999997203704,154.5814749170022,154.5814749170022,154.5814749170022,154.5814749170022,154.5814749170022,154.5814749170022,154.61735229100304,155.55447750000167,157.08651379200091,157.12088100000256,1,1,0.923164915999223,0.1815111670002807,157.0865842500025,157.08850562500083,157.08850562500083,157.08850562500083,157.08850562500083,159.0849929169999,159.0849929169999,159.0849929169999,159.0849929169999,159.0734012089997,1,1,False,0,0,-1.25,159.10780541600252,159.07348908399945,159.0849929169999,160.0716326670008,160.07011387500097,160.10447258300337,160.10449391600196,160.07015812499958,160.0716326670008,161.0684109169997,161.05649208400064,157.07129191700005,157.07129191700005,157.07129191700005,157.07129191700005,157.07129191700005,157.07129191700005,,,,,,,,,546421,1,A,Scan,no,2025-03-20_10h04.58.677,reward_learning_task,2024.2.4,None,"{'highgain': {'optimalChoice': '1.png', 'suboptimalChoice': '2.png'}, 'lowgain': {'optimalChoice': '3.png', 'suboptimalChoice': '4.png'}, 'highloss': {'optimalChoice': '5.png', 'suboptimalChoice': '6.png'}, 'lowloss': {'optimalChoice': '7.png', 'suboptimalChoice': '8.png'}}",Thu Mar 20 10:05:06 2025,2025-03-20 10h05.06.178324 -0400,-1.25,
Run1,21,21,0,lowloss,1.0,1.5,1,Drift4,6,22,space,0.6774167080002371,None,None,space,0.8449099579993344,None,7.png,8.png,right,left,2,1,images/8.png,images/7.png,161.0913305000031,161.60278312500304,162.44563916600237,164.10418937500071,2,1,0.8275938750011846,0.19822650000060094,1,1,True,1,0,-1.25,165.6045739580004,166.60473004100277,166.60475141600182,,,,,,,,0,0,0,0,0,21,21,21,,161.0684109169997,,,,,,,,,,,,,,,,,,,,,,,,,,,,,,,,7.png,8.png,right,left,2,1,images/8.png,images/7.png,161.0913305000031,161.05937487499978,161.0684109169997,161.0684109169997,0.0028733750004903413,161.56689908400222,161.56689908400222,161.56689908400222,161.56689908400222,161.56689908400222,161.56689908400222,161.60278312500304,162.44563916600237,164.06983070900242,164.10418937500071,2,1,0.8275938750011846,0.19822650000060094,164.07226262499898,164.07461895899905,164.07461895899905,164.07461895899905,164.07461895899905,165.57360970900118,165.57360970900118,165.57360970900118,165.57360970900118,165.57015808399956,1,1,True,1,0,-1.25,165.6045739580004,165.5717122499991,165.57360970900118,166.57197570900098,166.57037108400255,166.60473004100277,166.60475141600182,166.57041570900037,166.57197570900098,167.56832329200188,167.55645545900188,164.05463354200037,164.05463354200037,164.05463354200037,164.05463354200037,164.05463354200037,164.05463354200037,,,,,,,,,546421,1,A,Scan,no,2025-03-20_10h04.58.677,reward_learning_task,2024.2.4,None,"{'highgain': {'optimalChoice': '1.png', 'suboptimalChoice': '2.png'}, 'lowgain': {'optimalChoice': '3.png', 'suboptimalChoice': '4.png'}, 'highloss': {'optimalChoice': '5.png', 'suboptimalChoice': '6.png'}, 'lowloss': {'optimalChoice': '7.png', 'suboptimalChoice': '8.png'}}",Thu Mar 20 10:05:06 2025,2025-03-20 10h05.06.178324 -0400,-1.25,
Run1,22,22,0,lowgain,2.0,1.5,1,Drift2,4,23,space,0.6774167080002371,None,None,space,0.8449099579993344,None,3.png,4.png,left,right,1,2,images/3.png,images/4.png,167.59128470799988,168.1027281250026,169.48782016600308,170.6041687500001,1,1,1.3706344999991416,0.18375283300338197,1,1,True,1,0.25,-1.0,172.10458741600087,173.10468937500264,173.1047118330025,,,,,,,,0,0,0,0,0,22,22,22,,167.56832329200188,,,,,,,,,,,,,,,,,,,,,,,,,,,,,,,,3.png,4.png,left,right,1,2,images/3.png,images/4.png,167.59128470799988,167.55954170900077,167.56832329200188,167.56832329200188,0.0030816250000498258,168.06681966700125,168.06681966700125,168.06681966700125,168.06681966700125,168.06681966700125,168.06681966700125,168.1027281250026,169.48782016600308,170.56980995900085,170.6041687500001,1,1,1.3706344999991416,0.18375283300338197,170.5722314170016,170.57460037499914,170.57460037499914,170.57460037499914,170.57460037499914,172.07345787500162,172.07345787500162,172.07345787500162,172.07345787500162,172.070178209,1,1,True,1,0.25,-1.0,172.10458741600087,172.07156204200146,172.07345787500162,173.07196591699903,173.0703301249996,173.10468937500264,173.1047118330025,173.07037675000174,173.07196591699903,175.06833974999972,175.056887499999,170.5546322500013,170.5546322500013,170.5546322500013,170.5546322500013,170.5546322500013,170.5546322500013,,,,,,,,,546421,1,A,Scan,no,2025-03-20_10h04.58.677,reward_learning_task,2024.2.4,None,"{'highgain': {'optimalChoice': '1.png', 'suboptimalChoice': '2.png'}, 'lowgain': {'optimalChoice': '3.png', 'suboptimalChoice': '4.png'}, 'highloss': {'optimalChoice': '5.png', 'suboptimalChoice': '6.png'}, 'lowloss': {'optimalChoice': '7.png', 'suboptimalChoice': '8.png'}}",Thu Mar 20 10:05:06 2025,2025-03-20 10h05.06.178324 -0400,-1.0,
Run1,23,23,0,lowloss,1.0,2.5,1,Drift4,7,24,space,0.6774167080002371,None,None,space,0.8449099579993344,None,7.png,8.png,left,right,1,2,images/7.png,images/8.png,175.09181445800277,175.60361779100276,176.14380820800216,178.1042160830002,2,0,0.530363458001375,0.2299360830002115,2,0,False,0,-0.25,-1.25,180.60458658300195,181.60476837500028,181.6047886660017,,,,,,,,0,0,0,0,0,23,23,23,,175.06833974999972,,,,,,,,,,,,,,,,,,,,,,,,,,,,,,,,7.png,8.png,left,right,1,2,images/7.png,images/8.png,175.09181445800277,175.06045808400086,175.06833974999972,175.06833974999972,0.003562249999959022,175.5676982920013,175.5676982920013,175.5676982920013,175.5676982920013,175.5676982920013,175.5676982920013,175.60361779100276,176.14380820800216,178.06985791700208,178.1042160830002,2,0,0.530363458001375,0.2299360830002115,178.07227475000036,178.07469879199925,178.07469879199925,178.07469879199925,178.07469879199925,180.57350575000237,180.57350575000237,180.57350575000237,180.57350575000237,180.57018187500216,2,0,False,0,-0.25,-1.25,180.60458658300195,180.5715761249994,180.57350575000237,181.5720020000008,181.57041083399963,181.60476837500028,181.6047886660017,181.57045187499898,181.5720020000008,182.56854945899977,182.5570550420016,178.05470891699952,178.05470891699952,178.05470891699952,178.05470891699952,178.05470891699952,178.05470891699952,,,,,,,,,546421,1,A,Scan,no,2025-03-20_10h04.58.677,reward_learning_task,2024.2.4,None,"{'highgain': {'optimalChoice': '1.png', 'suboptimalChoice': '2.png'}, 'lowgain': {'optimalChoice': '3.png', 'suboptimalChoice': '4.png'}, 'highloss': {'optimalChoice': '5.png', 'suboptimalChoice': '6.png'}, 'lowloss': {'optimalChoice': '7.png', 'suboptimalChoice': '8.png'}}",Thu Mar 20 10:05:06 2025,2025-03-20 10h05.06.178324 -0400,-1.25,
Run1,24,24,0,lowgain,1.0,2.5,0,Drift2,5,25,space,0.6774167080002371,None,None,space,0.8449099579993344,None,3.png,4.png,right,left,2,1,images/4.png,images/3.png,182.5918930830012,183.10313604100156,183.49400329100172,185.6042346250033,1,0,0.37592695800049114,0.23083208299794933,2,0,True,1,0.25,-1.0,188.1048101660017,189.10463504100335,189.10465629100145,,,,,,,,0,0,0,0,0,24,24,24,,182.56854945899977,,,,,,,,,,,,,,,,,,,,,,,,,,,,,,,,3.png,4.png,right,left,2,1,images/4.png,images/3.png,182.5918930830012,182.55997270900116,182.56854945899977,182.56854945899977,0.0029100829997332767,183.0672283749991,183.0672283749991,183.0672283749991,183.0672283749991,183.0672283749991,183.0672283749991,183.10313604100156,183.49400329100172,185.56987629200012,185.6042346250033,1,0,0.37592695800049114,0.23083208299794933,185.57227420900017,185.57474654199905,185.57474654199905,185.57474654199905,185.57474654199905,188.0736096670007,188.0736096670007,188.0736096670007,188.0736096670007,188.07040612499986,2,0,True,1,0.25,-1.0,188.1048101660017,188.07179208399975,188.0736096670007,189.0717927500009,189.07027658399966,189.10463504100335,189.10465629100145,189.07032062500002,189.0717927500009,190.06834600000002,190.05656725000154,185.5549872090014,185.5549872090014,185.5549872090014,185.5549872090014,185.5549872090014,185.5549872090014,,,,,,,,,546421,1,A,Scan,no,2025-03-20_10h04.58.677,reward_learning_task,2024.2.4,None,"{'highgain': {'optimalChoice': '1.png', 'suboptimalChoice': '2.png'}, 'lowgain': {'optimalChoice': '3.png', 'suboptimalChoice': '4.png'}, 'highloss': {'optimalChoice': '5.png', 'suboptimalChoice': '6.png'}, 'lowloss': {'optimalChoice': '7.png', 'suboptimalChoice': '8.png'}}",Thu Mar 20 10:05:06 2025,2025-03-20 10h05.06.178324 -0400,-1.0,
Run1,25,25,0,lowloss,1.5,1.5,1,Drift4,8,26,space,0.6774167080002371,None,None,space,0.8449099579993344,None,7.png,8.png,left,right,1,2,images/7.png,images/8.png,190.09139312500338,190.60308283300037,190.97743429100228,193.10423629100114,2,0,0.3592158749997907,0.22821987499992247,2,0,False,0,-0.25,-1.25,194.60461245800252,195.604867500002,195.60489045800205,,,,,,,,0,0,0,0,0,25,25,25,,190.06834600000002,,,,,,,,,,,,,,,,,,,,,,,,,,,,,,,,7.png,8.png,left,right,1,2,images/7.png,images/8.png,190.09139312500338,190.05958074999944,190.06834600000002,190.06834600000002,0.003003375000844244,190.56702349999978,190.56702349999978,190.56702349999978,190.56702349999978,190.56702349999978,190.56702349999978,190.60308283300037,190.97743429100228,193.06987800000206,193.10423629100114,2,0,0.3592158749997907,0.22821987499992247,193.07226379200074,193.07454475000122,193.07454475000122,193.07454475000122,193.07454475000122,194.57340133400066,194.57340133400066,194.57340133400066,194.57340133400066,194.5702074590008,2,0,False,0,-0.25,-1.25,194.60461245800252,194.5715710000004,194.57340133400066,195.57213820900142,195.57050700000036,195.604867500002,195.60489045800205,195.57055637500162,195.57213820900142,197.0683710000012,197.05669354199927,193.05455941699984,193.05455941699984,193.05455941699984,193.05455941699984,193.05455941699984,193.05455941699984,,,,,,,,,546421,1,A,Scan,no,2025-03-20_10h04.58.677,reward_learning_task,2024.2.4,None,"{'highgain': {'optimalChoice': '1.png', 'suboptimalChoice': '2.png'}, 'lowgain': {'optimalChoice': '3.png', 'suboptimalChoice': '4.png'}, 'highloss': {'optimalChoice': '5.png', 'suboptimalChoice': '6.png'}, 'lowloss': {'optimalChoice': '7.png', 'suboptimalChoice': '8.png'}}",Thu Mar 20 10:05:06 2025,2025-03-20 10h05.06.178324 -0400,-1.25,
Run1,26,26,0,lowloss,2.0,2.0,0,Drift4,9,27,space,0.6774167080002371,None,None,space,0.8449099579993344,None,7.png,8.png,right,left,2,1,images/8.png,images/7.png,197.0915735410017,197.60003516600045,198.287667083001,200.1041455830018,2,1,0.6732061670008989,0.18741774999944028,1,1,False,0,-0.25,-1.5,202.09110391600188,203.08831308300068,203.0883344160029,,,,,,,,0,0,0,0,0,26,26,26,,197.0683710000012,,,,,,,,,,,,,,,,,,,,,,,,,,,,,,,,7.png,8.png,right,left,2,1,images/8.png,images/7.png,197.0915735410017,197.05725445899952,197.0683710000012,197.0683710000012,0.0005503749998752028,197.564071959001,197.564071959001,197.564071959001,197.564071959001,197.564071959001,197.564071959001,197.60003516600045,198.287667083001,200.06978704200083,200.1041455830018,2,1,0.6732061670008989,0.18741774999944028,200.06984762499997,200.07171241700053,200.07171241700053,200.07171241700053,200.07171241700053,202.0683870419998,202.0683870419998,202.0683870419998,202.0683870419998,202.05669904200113,1,1,False,0,-0.25,-1.5,202.09110391600188,202.05677491700044,202.0683870419998,203.05547354200098,203.0539543340019,203.08831308300068,203.0883344160029,203.05399887500243,203.05547354200098,205.05171766700005,205.04004766700018,200.05459829200117,200.05459829200117,200.05459829200117,200.05459829200117,200.05459829200117,200.05459829200117,,,,,,,,,546421,1,A,Scan,no,2025-03-20_10h04.58.677,reward_learning_task,2024.2.4,None,"{'highgain': {'optimalChoice': '1.png', 'suboptimalChoice': '2.png'}, 'lowgain': {'optimalChoice': '3.png', 'suboptimalChoice': '4.png'}, 'highloss': {'optimalChoice': '5.png', 'suboptimalChoice': '6.png'}, 'lowloss': {'optimalChoice': '7.png', 'suboptimalChoice': '8.png'}}",Thu Mar 20 10:05:06 2025,2025-03-20 10h05.06.178324 -0400,-1.5,
Run1,27,27,0,highgain,2.0,2.0,1,Drift1,7,28,space,0.6774167080002371,None,None,space,0.8449099579993344,None,1.png,2.png,right,left,2,1,images/2.png,images/1.png,205.07508141600192,205.58630774999983,206.12103433300217,208.08758775000024,2,1,0.5216677499993239,0.13801212500038673,1,1,True,1,0.5,-1.0,210.08893920800256,211.08821741600332,211.08823875000235,,,,,,,,0,0,0,0,0,27,27,27,,205.05171766700005,,,,,,,,,,,,,,,,,,,,,,,,,,,,,,,,1.png,2.png,right,left,2,1,images/2.png,images/1.png,205.07508141600192,205.04318825000155,205.05171766700005,205.05171766700005,0.003130000000965083,205.55034700000033,205.55034700000033,205.55034700000033,205.55034700000033,205.55034700000033,205.55034700000033,205.58630774999983,206.12103433300217,208.0532294170007,208.08758775000024,2,1,0.5216677499993239,0.13801212500038673,208.05576370900235,208.05808841700127,208.05808841700127,208.05808841700127,208.05808841700127,210.0582784170001,210.0582784170001,210.0582784170001,210.0582784170001,210.0545325000021,1,1,True,1,0.5,-1.0,210.08893920800256,210.05601579200084,210.0582784170001,211.0554648340003,211.05385879200185,211.08821741600332,211.08823875000235,211.05390275000173,211.0554648340003,213.05181662500036,213.0407252920013,208.03808500000014,208.03808500000014,208.03808500000014,208.03808500000014,208.03808500000014,208.03808500000014,,,,,,,,,546421,1,A,Scan,no,2025-03-20_10h04.58.677,reward_learning_task,2024.2.4,None,"{'highgain': {'optimalChoice': '1.png', 'suboptimalChoice': '2.png'}, 'lowgain': {'optimalChoice': '3.png', 'suboptimalChoice': '4.png'}, 'highloss': {'optimalChoice': '5.png', 'suboptimalChoice': '6.png'}, 'lowloss': {'optimalChoice': '7.png', 'suboptimalChoice': '8.png'}}",Thu Mar 20 10:05:06 2025,2025-03-20 10h05.06.178324 -0400,-1.0,
Run1,28,28,0,lowgain,1.5,1.5,1,Drift2,6,29,space,0.6774167080002371,None,None,space,0.8449099579993344,None,3.png,4.png,right,left,2,1,images/4.png,images/3.png,213.07555962500192,213.58535645800293,215.25455416600016,216.0875954160001,2,1,1.6561618750019989,0.16542479199779336,1,1,True,1,0.25,-0.75,217.58804645800046,218.58806354100307,218.58808433300146,,,,,,,,0,0,0,0,0,28,28,28,,213.05181662500036,,,,,,,,,,,,,,,,,,,,,,,,,,,,,,,,3.png,4.png,right,left,2,1,images/4.png,images/3.png,213.07555962500192,213.0425414170022,213.05181662500036,213.05181662500036,0.0018088340002577752,213.54941716699977,213.54941716699977,213.54941716699977,213.54941716699977,213.54941716699977,213.54941716699977,213.58535645800293,215.25455416600016,216.05323754200072,216.0875954160001,2,1,1.6561618750019989,0.16542479199779336,216.05461300000024,216.05697387500186,216.05697387500186,216.05697387500186,216.05697387500186,217.55700708400036,217.55700708400036,217.55700708400036,217.55700708400036,217.55364254199958,1,1,True,1,0.25,-0.75,217.58804645800046,217.55504408400157,217.55700708400036,218.55537912500222,218.55370475000018,218.58806354100307,218.58808433300146,218.55374833400128,218.55537912500222,220.05186383399996,220.04043625000122,216.03808691700033,216.03808691700033,216.03808691700033,216.03808691700033,216.03808691700033,216.03808691700033,,,,,,,,,546421,1,A,Scan,no,2025-03-20_10h04.58.677,reward_learning_task,2024.2.4,None,"{'highgain': {'optimalChoice': '1.png', 'suboptimalChoice': '2.png'}, 'lowgain': {'optimalChoice': '3.png', 'suboptimalChoice': '4.png'}, 'highloss': {'optimalChoice': '5.png', 'suboptimalChoice': '6.png'}, 'lowloss': {'optimalChoice': '7.png', 'suboptimalChoice': '8.png'}}",Thu Mar 20 10:05:06 2025,2025-03-20 10h05.06.178324 -0400,-0.75,
Run1,29,29,0,highloss,1.0,1.5,0,Drift3,8,30,space,0.6774167080002371,None,None,space,0.8449099579993344,None,5.png,6.png,right,left,2,1,images/6.png,images/5.png,220.07538954100164,220.5876930830018,222.52846983300333,223.0877524580028,1,0,1.9326607500006503,0.2060808749993157,2,0,True,1,0,-0.75,224.5880192500008,225.5880712500002,225.58809254100197,,,,,,,,0,0,0,0,0,29,29,29,,220.05186383399996,,,,,,,,,,,,,,,,,,,,,,,,,,,,,,,,5.png,6.png,right,left,2,1,images/6.png,images/5.png,220.07538954100164,220.04325595900082,220.05186383399996,220.05186383399996,0.0028091669992136303,220.5509743750008,220.5509743750008,220.5509743750008,220.5509743750008,220.5509743750008,220.5509743750008,220.5876930830018,222.52846983300333,223.0533920420021,223.0877524580028,1,0,1.9326607500006503,0.2060808749993157,223.05587704199934,223.0583287920017,223.0583287920017,223.0583287920017,223.0583287920017,224.55688462500257,224.55688462500257,224.55688462500257,224.55688462500257,224.55360700000165,2,0,True,1,0,-0.75,224.5880192500008,224.55499454200253,224.55688462500257,225.55533337499946,225.55370987499919,225.5880712500002,225.58809254100197,225.5537566669991,225.55533337499946,226.55176141700213,226.54061116700177,223.03850333399896,223.03850333399896,223.03850333399896,223.03850333399896,223.03850333399896,223.03850333399896,,,,,,,,,546421,1,A,Scan,no,2025-03-20_10h04.58.677,reward_learning_task,2024.2.4,None,"{'highgain': {'optimalChoice': '1.png', 'suboptimalChoice': '2.png'}, 'lowgain': {'optimalChoice': '3.png', 'suboptimalChoice': '4.png'}, 'highloss': {'optimalChoice': '5.png', 'suboptimalChoice': '6.png'}, 'lowloss': {'optimalChoice': '7.png', 'suboptimalChoice': '8.png'}}",Thu Mar 20 10:05:06 2025,2025-03-20 10h05.06.178324 -0400,-0.75,
Run1,30,30,0,highgain,1.0,1.5,1,Drift1,8,31,space,0.6774167080002371,None,None,space,0.8449099579993344,None,1.png,2.png,left,right,1,2,images/1.png,images/2.png,226.57561287499993,227.08679708300042,228.84439937500065,229.58754370800307,1,1,1.746353167000052,0.2078403330015135,1,1,True,1,0.5,-0.25,231.08811041599984,232.08811645800233,232.0881362500004,,,,,,,,0,0,0,0,0,30,30,30,,226.55176141700213,,,,,,,,,,,,,,,,,,,,,,,,,,,,,,,,1.png,2.png,left,right,1,2,images/1.png,images/2.png,226.57561287499993,226.54363529200054,226.55176141700213,226.55176141700213,0.0030166249998728745,227.0508566669996,227.0508566669996,227.0508566669996,227.0508566669996,227.0508566669996,227.0508566669996,227.08679708300042,228.84439937500065,229.55318583400003,229.58754370800307,1,1,1.746353167000052,0.2078403330015135,229.555776125002,229.5581363750025,229.5581363750025,229.5581363750025,229.5581363750025,231.0569892090025,231.0569892090025,231.0569892090025,231.0569892090025,231.05370562499957,1,1,True,1,0.5,-0.25,231.08811041599984,231.0550995420017,231.0569892090025,232.05527079199965,232.05375875000027,232.08811645800233,232.0881362500004,232.05379958400226,232.05527079199965,233.05183566699998,233.04043425000054,229.53801170899897,229.53801170899897,229.53801170899897,229.53801170899897,229.53801170899897,229.53801170899897,,,,,,,,,546421,1,A,Scan,no,2025-03-20_10h04.58.677,reward_learning_task,2024.2.4,None,"{'highgain': {'optimalChoice': '1.png', 'suboptimalChoice': '2.png'}, 'lowgain': {'optimalChoice': '3.png', 'suboptimalChoice': '4.png'}, 'highloss': {'optimalChoice': '5.png', 'suboptimalChoice': '6.png'}, 'lowloss': {'optimalChoice': '7.png', 'suboptimalChoice': '8.png'}}",Thu Mar 20 10:05:06 2025,2025-03-20 10h05.06.178324 -0400,-0.25,
Run1,31,31,0,highgain,1.5,1.5,0,Drift1,9,32,space,0.6774167080002371,None,None,space,0.8449099579993344,None,1.png,2.png,left,right,1,2,images/1.png,images/2.png,233.075322916,233.58406691600248,234.57754725000268,236.07486729100128,1,1,0.9802798749988142,0.1991527499994845,1,1,False,0,0,-0.25,237.57133616600186,238.57140612500007,238.5714266660034,,,,,,,,0,0,0,0,0,31,31,31,,233.05183566699998,,,,,,,,,,,,,,,,,,,,,,,,,,,,,,,,1.png,2.png,left,right,1,2,images/1.png,images/2.png,233.075322916,233.04101812500085,233.05183566699998,233.05183566699998,0.0005802919986308552,233.54816645900064,233.54816645900064,233.54816645900064,233.54816645900064,233.54816645900064,233.54816645900064,233.58406691600248,234.57754725000268,236.04050941700189,236.07486729100128,1,1,0.9802798749988142,0.1991527499994845,236.04056866700193,236.05180725000173,236.05180725000173,236.05180725000173,236.05180725000173,237.54019004200018,237.54019004200018,237.54019004200018,237.54019004200018,237.5369329589994,1,1,False,0,0,-0.25,237.57133616600186,237.53832895899905,237.54019004200018,238.53862062500048,238.53704674999972,238.57140612500007,238.5714266660034,238.53709079200053,238.53862062500048,240.0351839169998,240.023859334,236.03900237500056,236.03900237500056,236.03900237500056,236.03900237500056,236.03900237500056,236.03900237500056,,,,,,,,,546421,1,A,Scan,no,2025-03-20_10h04.58.677,reward_learning_task,2024.2.4,None,"{'highgain': {'optimalChoice': '1.png', 'suboptimalChoice': '2.png'}, 'lowgain': {'optimalChoice': '3.png', 'suboptimalChoice': '4.png'}, 'highloss': {'optimalChoice': '5.png', 'suboptimalChoice': '6.png'}, 'lowloss': {'optimalChoice': '7.png', 'suboptimalChoice': '8.png'}}",Thu Mar 20 10:05:06 2025,2025-03-20 10h05.06.178324 -0400,-0.25,
Run1,32,32,0,highloss,1.0,1.5,1,Drift3,9,33,space,0.6774167080002371,None,None,space,0.8449099579993344,None,5.png,6.png,left,right,1,2,images/5.png,images/6.png,240.05903616600335,240.5703906250019,242.50952437500018,243.07139900000038,2,0,1.9231877090023772,0.2665621249980177,2,0,False,0,-0.5,-0.75,244.57134954100184,245.57164320800075,245.57166820800194,,,,,,,,0,0,0,0,0,32,32,32,,240.0351839169998,,,,,,,,,,,,,,,,,,,,,,,,,,,,,,,,5.png,6.png,left,right,1,2,images/5.png,images/6.png,240.05903616600335,240.0270389590005,240.0351839169998,240.0351839169998,0.0031710840012237895,240.5343314999991,240.5343314999991,240.5343314999991,240.5343314999991,240.5343314999991,240.5343314999991,240.5703906250019,242.50952437500018,243.03703766699982,243.07139900000038,2,0,1.9231877090023772,0.2665621249980177,243.0395370840015,243.04215216699959,243.04215216699959,243.04215216699959,243.04215216699959,244.54015183400043,244.54015183400043,244.54015183400043,244.54015183400043,244.53694437500235,2,0,False,0,-0.5,-0.75,244.57134954100184,244.53832145900014,244.54015183400043,245.53903374999936,245.53728362499896,245.57164320800075,245.57166820800194,245.53733283399924,245.53903374999936,246.5351968340001,246.52421429199967,243.0219723750015,243.0219723750015,243.0219723750015,243.0219723750015,243.0219723750015,243.0219723750015,,,,,,,,,546421,1,A,Scan,no,2025-03-20_10h04.58.677,reward_learning_task,2024.2.4,None,"{'highgain': {'optimalChoice': '1.png', 'suboptimalChoice': '2.png'}, 'lowgain': {'optimalChoice': '3.png', 'suboptimalChoice': '4.png'}, 'highloss': {'optimalChoice': '5.png', 'suboptimalChoice': '6.png'}, 'lowloss': {'optimalChoice': '7.png', 'suboptimalChoice': '8.png'}}",Thu Mar 20 10:05:06 2025,2025-03-20 10h05.06.178324 -0400,-0.75,
Run1,33,33,0,highgain,1.0,2.0,1,Drift1,10,34,space,0.6774167080002371,None,None,space,0.8449099579993344,None,1.png,2.png,right,left,2,1,images/2.png,images/1.png,246.55923250000342,247.0709910000005,248.3606815000021,249.57099229100277,2,1,1.274124584000674,0.16315470799963805,1,1,True,1,0.5,-0.25,251.57147612500194,252.57157641600134,252.5715980410023,,,,,,,,0,0,0,0,0,33,33,33,,246.5351968340001,,,,,,,,,,,,,,,,,,,,,,,,,,,,,,,,1.png,2.png,right,left,2,1,images/2.png,images/1.png,246.55923250000342,246.5273165840008,246.5351968340001,246.5351968340001,0.0030957090020820033,247.03491750000103,247.03491750000103,247.03491750000103,247.03491750000103,247.03491750000103,247.03491750000103,247.0709910000005,248.3606815000021,249.53663429200242,249.57099229100277,2,1,1.274124584000674,0.16315470799963805,249.5391788750021,249.54153199999928,249.54153199999928,249.54153199999928,249.54153199999928,251.54041700000016,251.54041700000016,251.54041700000016,251.54041700000016,251.53707116700025,1,1,True,1,0.5,-0.25,251.57147612500194,251.53847220900207,251.54041700000016,252.53887179199955,252.53721691700048,252.57157641600134,252.5715980410023,252.53726279200055,252.53887179199955,253.53515141699972,253.5236030840024,249.52135512500172,249.52135512500172,249.52135512500172,249.52135512500172,249.52135512500172,249.52135512500172,,,,,,,,,546421,1,A,Scan,no,2025-03-20_10h04.58.677,reward_learning_task,2024.2.4,None,"{'highgain': {'optimalChoice': '1.png', 'suboptimalChoice': '2.png'}, 'lowgain': {'optimalChoice': '3.png', 'suboptimalChoice': '4.png'}, 'highloss': {'optimalChoice': '5.png', 'suboptimalChoice': '6.png'}, 'lowloss': {'optimalChoice': '7.png', 'suboptimalChoice': '8.png'}}",Thu Mar 20 10:05:06 2025,2025-03-20 10h05.06.178324 -0400,-0.25,
Run1,34,34,0,highgain,1.0,2.5,1,Drift1,11,35,space,0.6774167080002371,None,None,space,0.8449099579993344,None,1.png,2.png,right,left,2,1,images/2.png,images/1.png,253.55861112500133,254.0675205410007,255.04469154100298,256.57099075000224,2,1,0.96915304200229,0.1555089159992349,1,1,True,1,0.5,0.25,259.05819466600224,260.05502083300235,260.0550417080012,,,,,,,,0,0,0,0,0,34,34,34,,253.53515141699972,,,,,,,,,,,,,,,,,,,,,,,,,,,,,,,,1.png,2.png,right,left,2,1,images/2.png,images/1.png,253.55861112500133,253.5242929590022,253.53515141699972,253.53515141699972,0.000676957999530714,254.0315217089992,254.0315217089992,254.0315217089992,254.0315217089992,254.0315217089992,254.0315217089992,254.0675205410007,255.04469154100298,256.5366323750022,256.57099075000224,2,1,0.96915304200229,0.1555089159992349,256.5366923750007,256.53860666699984,256.53860666699984,256.53860666699984,256.53860666699984,259.0351409169998,259.0351409169998,259.0351409169998,259.0351409169998,259.0237843340001,1,1,True,1,0.5,0.25,259.05819466600224,259.0238667090016,259.0351409169998,260.0223114590008,260.0206605839994,260.05502083300235,260.0550417080012,260.02070533400183,260.0223114590008,261.0185198340005,261.0066364170016,256.5212995840011,256.5212995840011,256.5212995840011,256.5212995840011,256.5212995840011,256.5212995840011,,,,,,,,,546421,1,A,Scan,no,2025-03-20_10h04.58.677,reward_learning_task,2024.2.4,None,"{'highgain': {'optimalChoice': '1.png', 'suboptimalChoice': '2.png'}, 'lowgain': {'optimalChoice': '3.png', 'suboptimalChoice': '4.png'}, 'highloss': {'optimalChoice': '5.png', 'suboptimalChoice': '6.png'}, 'lowloss': {'optimalChoice': '7.png', 'suboptimalChoice': '8.png'}}",Thu Mar 20 10:05:06 2025,2025-03-20 10h05.06.178324 -0400,0.25,
Run1,35,35,0,lowgain,1.0,1.5,1,Drift2,7,36,space,0.6774167080002371,None,None,space,0.8449099579993344,None,3.png,4.png,left,right,1,2,images/3.png,images/4.png,261.04146879100153,261.55169300000125,263.3879157500014,264.041545125001,1,1,1.8241227500002424,0.210765583000466,1,1,True,1,0.25,0.5,265.53807666600187,266.5382059580006,266.5382284160005,,,,,,,,0,0,0,0,0,35,35,35,,261.0185198340005,,,,,,,,,,,,,,,,,,,,,,,,,,,,,,,,3.png,4.png,left,right,1,2,images/3.png,images/4.png,261.04146879100153,261.0085614590025,261.0185198340005,261.0185198340005,0.001917208999657305,261.5157268340008,261.5157268340008,261.5157268340008,261.5157268340008,261.5157268340008,261.5157268340008,261.55169300000125,263.3879157500014,264.007186584,264.041545125001,1,1,1.8241227500002424,0.210765583000466,264.0086023340009,264.01864545900025,264.01864545900025,264.01864545900025,264.01864545900025,265.5071344169992,265.5071344169992,265.5071344169992,265.5071344169992,265.50367270900097,1,1,True,1,0.25,0.5,265.53807666600187,265.505233625001,265.5071344169992,,266.50384454199957,266.5382059580006,266.5382284160005,266.50389333400017,266.5056906669997,267.5019177089998,267.490820084,264.0055817499997,264.0055817499997,264.0055817499997,264.0055817499997,264.0055817499997,264.0055817499997,,,,,,,,,546421,1,A,Scan,no,2025-03-20_10h04.58.677,reward_learning_task,2024.2.4,None,"{'highgain': {'optimalChoice': '1.png', 'suboptimalChoice': '2.png'}, 'lowgain': {'optimalChoice': '3.png', 'suboptimalChoice': '4.png'}, 'highloss': {'optimalChoice': '5.png', 'suboptimalChoice': '6.png'}, 'lowloss': {'optimalChoice': '7.png', 'suboptimalChoice': '8.png'}}",Thu Mar 20 10:05:06 2025,2025-03-20 10h05.06.178324 -0400,0.5,
Run1,36,36,0,lowloss,1.0,2.5,0,Drift4,10,37,space,0.6774167080002371,None,None,space,0.8449099579993344,None,7.png,8.png,right,left,2,1,images/8.png,images/7.png,267.52564704100223,268.0383335000006,268.8776914580012,270.5377005830014,2,1,0.8288974589995632,0.15630358300040825,1,1,False,0,-0.25,0.25,273.03829383300035,274.03826525000113,274.0382868750021,,,,,,,,0,0,0,0,0,36,36,36,,267.5019177089998,,,,,,,,,,,,,,,,,,,,,,,,,,,,,,,,7.png,8.png,right,left,2,1,images/8.png,images/7.png,267.52564704100223,267.4938159170015,267.5019177089998,267.5019177089998,0.002987708998261951,268.0021208340004,268.0021208340004,268.0021208340004,268.0021208340004,268.0021208340004,268.0021208340004,268.0383335000006,268.8776914580012,270.5033429590003,270.5377005830014,2,1,0.8288974589995632,0.15630358300040825,270.5060883750011,270.5085840840002,270.5085840840002,270.5085840840002,270.5085840840002,273.0072154590016,273.0072154590016,273.0072154590016,273.0072154590016,273.0038850839992,1,1,False,0,-0.25,0.25,273.03829383300035,273.00531412499913,273.0072154590016,274.00553175000096,274.00390512500235,274.03826525000113,274.0382868750021,274.0039516249999,274.00553175000096,275.00197987499996,274.9902541670017,270.4881554170024,270.4881554170024,270.4881554170024,270.4881554170024,270.4881554170024,270.4881554170024,,,,,,,,,546421,1,A,Scan,no,2025-03-20_10h04.58.677,reward_learning_task,2024.2.4,None,"{'highgain': {'optimalChoice': '1.png', 'suboptimalChoice': '2.png'}, 'lowgain': {'optimalChoice': '3.png', 'suboptimalChoice': '4.png'}, 'highloss': {'optimalChoice': '5.png', 'suboptimalChoice': '6.png'}, 'lowloss': {'optimalChoice': '7.png', 'suboptimalChoice': '8.png'}}",Thu Mar 20 10:05:06 2025,2025-03-20 10h05.06.178324 -0400,0.25,
Run1,37,37,0,lowloss,1.0,2.0,1,Drift4,11,38,space,0.6774167080002371,None,None,space,0.8449099579993344,None,7.png,8.png,right,left,2,1,images/8.png,images/7.png,275.0252385410022,275.53368087499985,276.24476450000293,278.0377692080001,2,1,0.7020359580019431,0.18203637499755132,1,1,True,1,0,0.25,280.02462387500054,281.0216592500001,281.02168125000026,,,,,,,,0,0,0,0,0,37,37,37,,275.00197987499996,,,,,,,,,,,,,,,,,,,,,,,,,,,,,,,,7.png,8.png,right,left,2,1,images/8.png,images/7.png,275.0252385410022,274.9909182500014,275.00197987499996,275.00197987499996,0.0006537909976032097,275.4978083339993,275.4978083339993,275.4978083339993,275.4978083339993,275.4978083339993,275.4978083339993,275.53368087499985,276.24476450000293,278.00340958400193,278.0377692080001,2,1,0.7020359580019431,0.18203637499755132,278.00347200000033,278.00544845900004,278.00544845900004,278.00544845900004,278.00544845900004,280.001862000001,280.001862000001,280.001862000001,280.001862000001,279.9902191250003,1,1,True,1,0,0.25,280.02462387500054,279.991607709002,280.001862000001,280.9888138749993,280.98730012500164,281.0216592500001,281.02168125000026,280.98735591700097,280.9888138749993,281.9851981669999,281.9734655840002,277.98826375000135,277.98826375000135,277.98826375000135,277.98826375000135,277.98826375000135,277.98826375000135,,,,,,,,,546421,1,A,Scan,no,2025-03-20_10h04.58.677,reward_learning_task,2024.2.4,None,"{'highgain': {'optimalChoice': '1.png', 'suboptimalChoice': '2.png'}, 'lowgain': {'optimalChoice': '3.png', 'suboptimalChoice': '4.png'}, 'highloss': {'optimalChoice': '5.png', 'suboptimalChoice': '6.png'}, 'lowloss': {'optimalChoice': '7.png', 'suboptimalChoice': '8.png'}}",Thu Mar 20 10:05:06 2025,2025-03-20 10h05.06.178324 -0400,0.25,
Run1,38,38,0,lowgain,1.0,1.5,0,Drift2,8,39,space,0.6774167080002371,None,None,space,0.8449099579993344,None,3.png,4.png,right,left,2,1,images/4.png,images/3.png,282.0084717500031,282.5193433750028,284.2776321250021,285.02103012500083,2,1,1.7485512920029578,0.17484608299855608,1,1,False,0,0,0.25,286.5214106250023,287.52150045800227,287.5215237500015,,,,,,,,0,0,0,0,0,38,38,38,,281.9851981669999,,,,,,,,,,,,,,,,,,,,,,,,,,,,,,,,3.png,4.png,right,left,2,1,images/4.png,images/3.png,282.0084717500031,281.97669116700126,281.9851981669999,281.9851981669999,0.0032157499990717042,282.48344941699906,282.48344941699906,282.48344941699906,282.48344941699906,282.48344941699906,282.48344941699906,282.5193433750028,284.2776321250021,284.986672209001,285.02103012500083,2,1,1.7485512920029578,0.17484608299855608,284.98906708399954,284.9913555000021,284.9913555000021,284.9913555000021,284.9913555000021,286.49023395900076,286.49023395900076,286.49023395900076,286.49023395900076,286.4870048340017,1,1,False,0,0,0.25,286.5214106250023,286.4884410420018,286.49023395900076,287.4886808750016,287.4871410420019,287.52150045800227,287.5215237500015,287.48718787500184,287.4886808750016,288.4852028339992,288.47344816700206,284.9715613340013,284.9715613340013,284.9715613340013,284.9715613340013,284.9715613340013,284.9715613340013,,,,,,,,,546421,1,A,Scan,no,2025-03-20_10h04.58.677,reward_learning_task,2024.2.4,None,"{'highgain': {'optimalChoice': '1.png', 'suboptimalChoice': '2.png'}, 'lowgain': {'optimalChoice': '3.png', 'suboptimalChoice': '4.png'}, 'highloss': {'optimalChoice': '5.png', 'suboptimalChoice': '6.png'}, 'lowloss': {'optimalChoice': '7.png', 'suboptimalChoice': '8.png'}}",Thu Mar 20 10:05:06 2025,2025-03-20 10h05.06.178324 -0400,0.25,
Run1,39,39,0,lowgain,1.5,2.0,1,Drift2,9,40,space,0.6774167080002371,None,None,space,0.8449099579993344,None,3.png,4.png,right,left,2,1,images/4.png,images/3.png,288.50842629100225,289.01681183300025,289.7942963330024,291.5210400410033,1,0,0.7675106250026147,0.22330945800058544,2,0,False,0,0,0.25,293.50857245800216,294.5047473750019,294.5047707500016,,,,,,,,0,0,0,0,0,39,39,39,,288.4852028339992,,,,,,,,,,,,,,,,,,,,,,,,,,,,,,,,3.png,4.png,right,left,2,1,images/4.png,images/3.png,288.50842629100225,288.4741048750002,288.4852028339992,288.4852028339992,0.0006475410009443294,288.98087091699927,288.98087091699927,288.98087091699927,288.98087091699927,288.98087091699927,288.98087091699927,289.01681183300025,289.7942963330024,291.48668208399977,291.5210400410033,1,0,0.7675106250026147,0.22330945800058544,291.48674324999956,291.4886464170013,291.4886464170013,291.4886464170013,291.4886464170013,293.48523970899987,293.48523970899987,293.48523970899987,293.48523970899987,293.4741661250009,2,0,False,0,0,0.25,293.50857245800216,293.47424387499996,293.48523970899987,294.4719307500018,294.47038875,294.5047473750019,294.5047707500016,294.4704350840002,294.4719307500018,295.9685507920003,295.95876158399915,291.47143141700144,291.47143141700144,291.47143141700144,291.47143141700144,291.47143141700144,291.47143141700144,,,,,,,,,546421,1,A,Scan,no,2025-03-20_10h04.58.677,reward_learning_task,2024.2.4,None,"{'highgain': {'optimalChoice': '1.png', 'suboptimalChoice': '2.png'}, 'lowgain': {'optimalChoice': '3.png', 'suboptimalChoice': '4.png'}, 'highloss': {'optimalChoice': '5.png', 'suboptimalChoice': '6.png'}, 'lowloss': {'optimalChoice': '7.png', 'suboptimalChoice': '8.png'}}",Thu Mar 20 10:05:06 2025,2025-03-20 10h05.06.178324 -0400,0.25,
Run1,40,40,0,highgain,1.5,1.5,1,Drift1,12,41,space,0.6774167080002371,None,None,space,0.8449099579993344,None,1.png,2.png,right,left,2,1,images/2.png,images/1.png,295.99363425000047,296.503591875,297.3939508750009,299.0043482910005,2,1,0.8780867499990563,0.18395624999902793,1,1,True,1,0.5,0.75,300.5047928330023,301.50487591600177,301.50489862500035,,,,,,,,0,0,0,0,0,40,40,40,,295.9685507920003,,,,,,,,,,,,,,,,,,,,,,,,,,,,,,,,1.png,2.png,right,left,2,1,images/2.png,images/1.png,295.99363425000047,295.96071629200014,295.9685507920003,295.9685507920003,0.0019478329995763488,296.4676957090014,296.4676957090014,296.4676957090014,296.4676957090014,296.4676957090014,296.4676957090014,296.503591875,297.3939508750009,298.9699901669992,299.0043482910005,2,1,0.8780867499990563,0.18395624999902793,298.9713434590012,298.9735635420002,298.9735635420002,298.9735635420002,298.9735635420002,300.47400383400236,300.47400383400236,300.47400383400236,300.47400383400236,300.47038837500077,1,1,True,1,0.5,0.75,300.5047928330023,300.47200712500126,300.47400383400236,301.47219908400075,301.47051762499905,301.50487591600177,301.50489862500035,301.4705627500007,301.47219908400075,302.9688370420008,302.95683154200015,298.95481162500073,298.95481162500073,298.95481162500073,298.95481162500073,298.95481162500073,298.95481162500073,,,,,,,,,546421,1,A,Scan,no,2025-03-20_10h04.58.677,reward_learning_task,2024.2.4,None,"{'highgain': {'optimalChoice': '1.png', 'suboptimalChoice': '2.png'}, 'lowgain': {'optimalChoice': '3.png', 'suboptimalChoice': '4.png'}, 'highloss': {'optimalChoice': '5.png', 'suboptimalChoice': '6.png'}, 'lowloss': {'optimalChoice': '7.png', 'suboptimalChoice': '8.png'}}",Thu Mar 20 10:05:06 2025,2025-03-20 10h05.06.178324 -0400,0.75,
Run1,41,41,0,lowgain,1.0,2.0,1,Drift2,10,42,space,0.6774167080002371,None,None,space,0.8449099579993344,None,3.png,4.png,left,right,1,2,images/3.png,images/4.png,302.9916800830033,303.50184629100113,304.82767791600054,306.00458858300044,2,0,1.3086369999982708,0.14814837500307476,2,0,False,0,0,0.75,308.00503033300265,309.005132125003,309.005152208003,,,,,,,,0,0,0,0,0,41,41,41,,302.9688370420008,,,,,,,,,,,,,,,,,,,,,,,,,,,,,,,,3.png,4.png,left,right,1,2,images/3.png,images/4.png,302.9916800830033,302.95867700000235,302.9688370420008,302.9688370420008,0.0018334579981456045,303.46587320899926,303.46587320899926,303.46587320899926,303.46587320899926,303.46587320899926,303.46587320899926,303.50184629100113,304.82767791600054,305.97023045899914,306.00458858300044,2,0,1.3086369999982708,0.14814837500307476,305.97171662500114,305.97405141700074,305.97405141700074,305.97405141700074,305.97405141700074,307.9743880419992,307.9743880419992,307.9743880419992,307.9743880419992,307.9706211670018,2,0,False,0,0,0.75,308.00503033300265,307.97214445899954,307.9743880419992,308.97228270900086,308.97077354200155,309.005132125003,309.005152208003,308.97081620899917,308.97228270900086,309.9688734170013,309.95687154199913,305.9550071670019,305.9550071670019,305.9550071670019,305.9550071670019,305.9550071670019,305.9550071670019,,,,,,,,,546421,1,A,Scan,no,2025-03-20_10h04.58.677,reward_learning_task,2024.2.4,None,"{'highgain': {'optimalChoice': '1.png', 'suboptimalChoice': '2.png'}, 'lowgain': {'optimalChoice': '3.png', 'suboptimalChoice': '4.png'}, 'highloss': {'optimalChoice': '5.png', 'suboptimalChoice': '6.png'}, 'lowloss': {'optimalChoice': '7.png', 'suboptimalChoice': '8.png'}}",Thu Mar 20 10:05:06 2025,2025-03-20 10h05.06.178324 -0400,0.75,
Run1,42,42,0,highgain,1.0,2.0,1,Drift1,13,43,space,0.6774167080002371,None,None,space,0.8449099579993344,None,1.png,2.png,right,left,2,1,images/2.png,images/1.png,309.99174295800185,310.5017738330025,311.22131154100134,313.00446833300157,2,1,0.7061953750016983,0.14983749999737483,1,1,True,1,0.5,1.25,315.0047168750025,316.0049133749999,316.00493458300116,,,,,,,,0,0,0,0,0,42,42,42,,309.9688734170013,,,,,,,,,,,,,,,,,,,,,,,,,,,,,,,,1.png,2.png,right,left,2,1,images/2.png,images/1.png,309.99174295800185,309.95878900000025,309.9688734170013,309.9688734170013,0.001913084000989329,310.46578120900085,310.46578120900085,310.46578120900085,310.46578120900085,310.46578120900085,310.46578120900085,310.5017738330025,311.22131154100134,312.970110000002,313.00446833300157,2,1,0.7061953750016983,0.14983749999737483,312.97149116700166,312.97375883399945,312.97375883399945,312.97375883399945,312.97375883399945,314.9735131250018,314.9735131250018,314.9735131250018,314.9735131250018,314.9703132499999,1,1,True,1,0.5,1.25,315.0047168750025,314.9716792920008,314.9735131250018,315.9720339170017,315.97055520900176,316.0049133749999,316.00493458300116,315.9705983749991,315.9720339170017,316.9685648750019,316.95676275000005,312.9548470840018,312.9548470840018,312.9548470840018,312.9548470840018,312.9548470840018,312.9548470840018,,,,,,,,,546421,1,A,Scan,no,2025-03-20_10h04.58.677,reward_learning_task,2024.2.4,None,"{'highgain': {'optimalChoice': '1.png', 'suboptimalChoice': '2.png'}, 'lowgain': {'optimalChoice': '3.png', 'suboptimalChoice': '4.png'}, 'highloss': {'optimalChoice': '5.png', 'suboptimalChoice': '6.png'}, 'lowloss': {'optimalChoice': '7.png', 'suboptimalChoice': '8.png'}}",Thu Mar 20 10:05:06 2025,2025-03-20 10h05.06.178324 -0400,1.25,
Run1,43,43,0,highloss,1.0,1.5,1,Drift3,10,44,space,0.6774167080002371,None,None,space,0.8449099579993344,None,5.png,6.png,left,right,1,2,images/5.png,images/6.png,316.99161000000095,317.50236166600007,318.62747158300044,320.0044302910028,1,1,1.116269750000356,0.19298312500177417,1,1,True,1,0,1.25,321.5048048330027,322.5049543330024,322.50498212500315,,,,,,,,0,0,0,0,0,43,43,43,,316.9685648750019,,,,,,,,,,,,,,,,,,,,,,,,,,,,,,,,5.png,6.png,left,right,1,2,images/5.png,images/6.png,316.99161000000095,316.95962116699957,316.9685648750019,316.9685648750019,0.0028497920029622037,317.46648554200146,317.46648554200146,317.46648554200146,317.46648554200146,317.46648554200146,317.46648554200146,317.50236166600007,318.62747158300044,319.970072084001,320.0044302910028,1,1,1.116269750000356,0.19298312500177417,319.9724601670023,319.97477375000017,319.97477375000017,319.97477375000017,319.97477375000017,321.4738651250009,321.4738651250009,321.4738651250009,321.4738651250009,321.4704022500009,1,1,True,1,0,1.25,321.5048048330027,321.471934125002,321.4738651250009,322.47215883399986,322.47059337500104,322.5049543330024,322.50498212500315,322.47064612500253,322.47215883399986,323.46861129199897,323.45673287500176,319.9548253749999,319.9548253749999,319.9548253749999,319.9548253749999,319.9548253749999,319.9548253749999,,,,,,,,,546421,1,A,Scan,no,2025-03-20_10h04.58.677,reward_learning_task,2024.2.4,None,"{'highgain': {'optimalChoice': '1.png', 'suboptimalChoice': '2.png'}, 'lowgain': {'optimalChoice': '3.png', 'suboptimalChoice': '4.png'}, 'highloss': {'optimalChoice': '5.png', 'suboptimalChoice': '6.png'}, 'lowloss': {'optimalChoice': '7.png', 'suboptimalChoice': '8.png'}}",Thu Mar 20 10:05:06 2025,2025-03-20 10h05.06.178324 -0400,1.25,
Run1,44,44,0,highloss,2.0,1.5,1,Drift3,11,45,space,0.6774167080002371,None,None,space,0.8449099579993344,None,5.png,6.png,right,left,2,1,images/6.png,images/5.png,323.49156579100236,324.0003377500034,325.3775125830034,326.50444629100093,1,0,1.3681824170016625,0.18294933300057892,2,0,False,0,-0.5,0.75,327.99153979100083,328.98829275000026,328.9883135000018,,,,,,,,0,0,0,0,0,44,44,44,,323.46861129199897,,,,,,,,,,,,,,,,,,,,,,,,,,,,,,,,5.png,6.png,right,left,2,1,images/6.png,images/5.png,323.49156579100236,323.45724450000125,323.46861129199897,323.46861129199897,0.0005030419997638091,323.9643904170007,323.9643904170007,323.9643904170007,323.9643904170007,323.9643904170007,323.9643904170007,324.0003377500034,325.3775125830034,326.47008895900217,326.50444629100093,1,0,1.3681824170016625,0.18294933300057892,326.470147,326.47200366700054,326.47200366700054,326.47200366700054,326.47200366700054,327.96864295900014,327.96864295900014,327.96864295900014,327.96864295900014,327.9571342500021,2,0,False,0,-0.5,0.75,327.99153979100083,327.95866529200066,327.96864295900014,328.9554455840007,328.9539336670023,328.98829275000026,328.9883135000018,328.95397729199976,328.9554455840007,330.9519805839991,330.9402978750004,326.4548187090004,326.4548187090004,326.4548187090004,326.4548187090004,326.4548187090004,326.4548187090004,,,,,,,,,546421,1,A,Scan,no,2025-03-20_10h04.58.677,reward_learning_task,2024.2.4,None,"{'highgain': {'optimalChoice': '1.png', 'suboptimalChoice': '2.png'}, 'lowgain': {'optimalChoice': '3.png', 'suboptimalChoice': '4.png'}, 'highloss': {'optimalChoice': '5.png', 'suboptimalChoice': '6.png'}, 'lowloss': {'optimalChoice': '7.png', 'suboptimalChoice': '8.png'}}",Thu Mar 20 10:05:06 2025,2025-03-20 10h05.06.178324 -0400,0.75,
Run1,45,45,0,lowloss,1.5,2.0,1,Drift4,12,46,space,0.6774167080002371,None,None,space,0.8449099579993344,None,7.png,8.png,left,right,1,2,images/7.png,images/8.png,330.97532291600146,331.4851880410024,332.2611000830002,333.98821283300276,1,1,0.7657520829998248,0.2071188340014487,1,1,True,1,0,0.75,335.98811512500106,336.9757427080003,336.9757642910008,,,,,,,,0,0,0,0,0,45,45,45,,330.9519805839991,,,,,,,,,,,,,,,,,,,,,,,,,,,,,,,,7.png,8.png,left,right,1,2,images/7.png,images/8.png,330.97532291600146,330.9423419590021,330.9519805839991,330.9519805839991,0.0020336250017862767,331.44925437500206,331.44925437500206,331.44925437500206,331.44925437500206,331.44925437500206,331.44925437500206,331.4851880410024,332.2611000830002,333.95385208399966,333.98821283300276,1,1,0.7657520829998248,0.2071188340014487,333.9554322090007,333.9579694999993,333.9579694999993,333.9579694999993,333.9579694999993,335.9568634999996,335.9568634999996,335.9568634999996,335.9568634999996,335.95371299999897,1,1,True,1,0,0.75,335.98811512500106,335.95506995899996,335.9568634999996,336.9522583750004,336.94138224999915,336.9757427080003,336.9757642910008,336.94142908399954,336.9522583750004,338.4393337500005,338.4371721669995,333.9384509170013,333.9384509170013,333.9384509170013,333.9384509170013,333.9384509170013,333.9384509170013,,,,,,,,,546421,1,A,Scan,no,2025-03-20_10h04.58.677,reward_learning_task,2024.2.4,None,"{'highgain': {'optimalChoice': '1.png', 'suboptimalChoice': '2.png'}, 'lowgain': {'optimalChoice': '3.png', 'suboptimalChoice': '4.png'}, 'highloss': {'optimalChoice': '5.png', 'suboptimalChoice': '6.png'}, 'lowloss': {'optimalChoice': '7.png', 'suboptimalChoice': '8.png'}}",Thu Mar 20 10:05:06 2025,2025-03-20 10h05.06.178324 -0400,0.75,
Run1,46,46,0,lowloss,1.0,1.5,1,Drift4,13,47,space,0.6774167080002371,None,None,space,0.8449099579993344,None,7.png,8.png,right,left,2,1,images/8.png,images/7.png,338.4720477080009,338.98026949999985,339.8276339160002,341.4742167910008,2,1,0.8315424169995822,0.16736566699910327,1,1,True,1,0,0.75,342.9716386660002,343.9589934579999,343.9590149579999,,,,,,,,0,0,0,0,0,46,46,46,,338.4393337500005,,,,,,,,,,,,,,,,,,,,,,,,,,,,,,,,7.png,8.png,right,left,2,1,images/8.png,images/7.png,338.4720477080009,338.4377289590011,338.4393337500005,338.4393337500005,0.0005447920011647511,338.94442750000235,338.94442750000235,338.94442750000235,338.94442750000235,338.94442750000235,338.94442750000235,338.98026949999985,339.8276339160002,341.43985925000015,341.4742167910008,2,1,0.8315424169995822,0.16736566699910327,341.4399186670016,341.4519254170009,341.4519254170009,341.4519254170009,341.4519254170009,342.9387102090004,342.9387102090004,342.9387102090004,342.9387102090004,342.9372349590012,1,1,True,1,0,0.75,342.9716386660002,342.93730995900114,342.9387102090004,343.9352632090013,343.9246335839998,343.9589934579999,343.9590149579999,343.9246787500015,343.9352632090013,344.9245147090005,344.92051608399925,341.43527358400024,341.4383832500025,341.4383832500025,341.4383832500025,341.4383832500025,341.4383832500025,,,,,,,,,546421,1,A,Scan,no,2025-03-20_10h04.58.677,reward_learning_task,2024.2.4,None,"{'highgain': {'optimalChoice': '1.png', 'suboptimalChoice': '2.png'}, 'lowgain': {'optimalChoice': '3.png', 'suboptimalChoice': '4.png'}, 'highloss': {'optimalChoice': '5.png', 'suboptimalChoice': '6.png'}, 'lowloss': {'optimalChoice': '7.png', 'suboptimalChoice': '8.png'}}",Thu Mar 20 10:05:06 2025,2025-03-20 10h05.06.178324 -0400,0.75,
Run1,47,47,0,highloss,2.0,1.5,1,Drift3,12,48,space,0.6774167080002371,None,None,space,0.8449099579993344,None,5.png,6.png,left,right,1,2,images/5.png,images/6.png,344.95552758300255,345.4656195410025,346.4881099160011,347.9573773330012,2,0,1.0081108750018757,0.15531787500003702,2,0,False,0,-0.5,0.25,349.45513974999994,350.45503912500135,350.45506087500326,,,,,,,,0,0,0,0,0,47,47,47,,344.9245147090005,,,,,,,,,,,,,,,,,,,,,,,,,,,,,,,,5.png,6.png,left,right,1,2,images/5.png,images/6.png,344.95552758300255,344.9225985840021,344.9245147090005,344.9245147090005,0.0020747080016008113,345.4296472919996,345.4296472919996,345.4296472919996,345.4296472919996,345.4296472919996,345.4296472919996,345.4656195410025,346.4881099160011,347.92302004200246,347.9573773330012,2,0,1.0081108750018757,0.15531787500003702,347.9243988340022,347.9353000420015,347.9353000420015,347.9353000420015,347.9353000420015,349.42412391700054,349.42412391700054,349.42412391700054,349.42412391700054,349.4207326249998,2,0,False,0,-0.5,0.25,349.45513974999994,349.4222135420023,349.42412391700054,350.42218283400143,350.4206794999991,350.45503912500135,350.45506087500326,350.42072645900043,350.42218283400143,352.41866237499926,352.407289458999,347.92152504200203,347.92152504200203,347.92152504200203,347.92152504200203,347.92152504200203,347.92152504200203,,,,,,,,,546421,1,A,Scan,no,2025-03-20_10h04.58.677,reward_learning_task,2024.2.4,None,"{'highgain': {'optimalChoice': '1.png', 'suboptimalChoice': '2.png'}, 'lowgain': {'optimalChoice': '3.png', 'suboptimalChoice': '4.png'}, 'highloss': {'optimalChoice': '5.png', 'suboptimalChoice': '6.png'}, 'lowloss': {'optimalChoice': '7.png', 'suboptimalChoice': '8.png'}}",Thu Mar 20 10:05:06 2025,2025-03-20 10h05.06.178324 -0400,0.25,
Run1,48,48,0,highgain,1.0,1.5,1,Drift1,14,49,space,0.6774167080002371,None,None,space,0.8449099579993344,None,1.png,2.png,left,right,1,2,images/1.png,images/2.png,352.4421346250019,352.95320841600187,354.0286631250019,355.45465075000175,1,1,1.0591667500011681,0.09088433400029317,1,1,True,1,0.5,0.75,356.95487808300095,357.95510920800007,357.9551312910007,,,,,,,,0,0,0,0,0,48,48,48,,352.41866237499926,,,,,,,,,,,,,,,,,,,,,,,,,,,,,,,,1.png,2.png,left,right,1,2,images/1.png,images/2.png,352.4421346250019,352.4101854170003,352.41866237499926,352.41866237499926,0.002889209001295967,352.917175958999,352.917175958999,352.917175958999,352.917175958999,352.917175958999,352.917175958999,352.95320841600187,354.0286631250019,355.42029204199935,355.45465075000175,1,1,1.0591667500011681,0.09088433400029317,355.4227598340003,355.42516758400234,355.42516758400234,355.42516758400234,355.42516758400234,356.9238965000004,356.9238965000004,356.9238965000004,356.9238965000004,356.9204731669997,1,1,True,1,0.5,0.75,356.95487808300095,356.9219807090012,356.9238965000004,357.92241687500064,357.92075095900145,357.95510920800007,357.9551312910007,357.92079554200245,357.92241687500064,358.91864233399974,358.9072856669991,355.4050370420009,355.4050370420009,355.4050370420009,355.4050370420009,355.4050370420009,355.4050370420009,,,,,,,,,546421,1,A,Scan,no,2025-03-20_10h04.58.677,reward_learning_task,2024.2.4,None,"{'highgain': {'optimalChoice': '1.png', 'suboptimalChoice': '2.png'}, 'lowgain': {'optimalChoice': '3.png', 'suboptimalChoice': '4.png'}, 'highloss': {'optimalChoice': '5.png', 'suboptimalChoice': '6.png'}, 'lowloss': {'optimalChoice': '7.png', 'suboptimalChoice': '8.png'}}",Thu Mar 20 10:05:06 2025,2025-03-20 10h05.06.178324 -0400,0.75,
Run1,49,49,0,highloss,1.0,1.5,1,Drift3,13,50,space,0.6774167080002371,None,None,space,0.8449099579993344,None,5.png,6.png,left,right,1,2,images/5.png,images/6.png,358.94216216600034,359.4534821660018,360.73803416600276,361.9545575410011,1,1,1.271398290999059,0.22101670900156023,1,1,True,1,0,0.75,363.4552823330014,364.45502158300224,364.4550435830024,,,,,,,,0,0,0,0,0,49,49,49,,358.91864233399974,,,,,,,,,,,,,,,,,,,,,,,,,,,,,,,,5.png,6.png,left,right,1,2,images/5.png,images/6.png,358.94216216600034,358.91028237499995,358.91864233399974,358.91864233399974,0.002986625000630738,359.41732324999975,359.41732324999975,359.41732324999975,359.41732324999975,359.41732324999975,359.41732324999975,359.4534821660018,360.73803416600276,361.9201994169998,361.9545575410011,1,1,1.271398290999059,0.22101670900156023,361.9226271250009,361.9251415840008,361.9251415840008,361.9251415840008,361.9251415840008,363.4243399170009,363.4243399170009,363.4243399170009,363.4243399170009,363.42087141700176,1,1,True,1,0,0.75,363.4552823330014,363.4224185000021,363.4243399170009,364.4223301250022,364.42066320899903,364.45502158300224,364.4550435830024,364.4207074590013,364.4223301250022,365.41877570900033,365.40711554200243,361.904958375002,361.904958375002,361.904958375002,361.904958375002,361.904958375002,361.904958375002,,,,,,,,,546421,1,A,Scan,no,2025-03-20_10h04.58.677,reward_learning_task,2024.2.4,None,"{'highgain': {'optimalChoice': '1.png', 'suboptimalChoice': '2.png'}, 'lowgain': {'optimalChoice': '3.png', 'suboptimalChoice': '4.png'}, 'highloss': {'optimalChoice': '5.png', 'suboptimalChoice': '6.png'}, 'lowloss': {'optimalChoice': '7.png', 'suboptimalChoice': '8.png'}}",Thu Mar 20 10:05:06 2025,2025-03-20 10h05.06.178324 -0400,0.75,
Run1,50,50,0,lowgain,1.5,2.0,1,Drift2,11,51,space,0.6774167080002371,None,None,space,0.8449099579993344,None,3.png,4.png,right,left,2,1,images/4.png,images/3.png,365.44197316600184,365.95366095800273,367.27769533300307,368.45445358300276,2,1,1.3130897499977436,0.17602804100170033,1,1,True,1,0.25,1.0,370.45485491600266,371.4550938749999,371.45511500000066,,,,,,,,0,0,0,0,0,50,50,50,,365.41877570900033,,,,,,,,,,,,,,,,,,,,,,,,,,,,,,,,3.png,4.png,right,left,2,1,images/4.png,images/3.png,365.44197316600184,365.41006633399957,365.41877570900033,365.41877570900033,0.0029406249996100087,365.9176066250002,365.9176066250002,365.9176066250002,365.9176066250002,365.9176066250002,365.9176066250002,365.95366095800273,367.27769533300307,368.4200958340007,368.45445358300276,2,1,1.3130897499977436,0.17602804100170033,368.42245545900005,368.4247412090008,368.4247412090008,368.4247412090008,368.4247412090008,370.4238328749998,370.4238328749998,370.4238328749998,370.4238328749998,370.42045266700006,1,1,True,1,0.25,1.0,370.45485491600266,370.42196295900067,370.4238328749998,371.42239608399905,371.42073425000126,371.4550938749999,371.45511500000066,371.4207795420007,371.42239608399905,372.91882049999913,372.90846766699906,368.4050534590024,368.4050534590024,368.4050534590024,368.4050534590024,368.4050534590024,368.4050534590024,,,,,,,,,546421,1,A,Scan,no,2025-03-20_10h04.58.677,reward_learning_task,2024.2.4,None,"{'highgain': {'optimalChoice': '1.png', 'suboptimalChoice': '2.png'}, 'lowgain': {'optimalChoice': '3.png', 'suboptimalChoice': '4.png'}, 'highloss': {'optimalChoice': '5.png', 'suboptimalChoice': '6.png'}, 'lowloss': {'optimalChoice': '7.png', 'suboptimalChoice': '8.png'}}",Thu Mar 20 10:05:06 2025,2025-03-20 10h05.06.178324 -0400,1.0,
Run1,51,51,0,lowgain,1.0,2.0,0,Drift2,12,52,space,0.6774167080002371,None,None,space,0.8449099579993344,None,3.png,4.png,left,right,1,2,images/3.png,images/4.png,372.94328858300287,373.451999375,374.24436849999984,375.954445708001,1,1,0.7796998749981867,0.19999987499977578,1,1,False,0,0,1.0,377.9414696660024,378.9383132080002,378.93833466600336,,,,,,,,0,0,0,0,0,51,51,51,,372.91882049999913,,,,,,,,,,,,,,,,,,,,,,,,,,,,,,,,3.png,4.png,left,right,1,2,images/3.png,images/4.png,372.94328858300287,372.90896770900144,372.91882049999913,372.91882049999913,0.0004865000009885989,373.4159706249993,373.4159706249993,373.4159706249993,373.4159706249993,373.4159706249993,373.4159706249993,373.451999375,374.24436849999984,375.9200878750016,375.954445708001,1,1,0.7796998749981867,0.19999987499977578,375.9201595000013,375.92200954200234,375.92200954200234,375.92200954200234,375.92200954200234,377.91875512499973,377.91875512499973,377.91875512499973,377.91875512499973,377.9070632090006,1,1,False,0,0,1.0,377.9414696660024,377.9084767919994,377.91875512499973,378.90552279199983,378.9039544590014,378.9383132080002,378.93833466600336,378.90399900000193,378.90552279199983,379.90199091700197,379.89031075000094,375.90490358399984,375.90490358399984,375.90490358399984,375.90490358399984,375.90490358399984,375.90490358399984,,,,,,,,,546421,1,A,Scan,no,2025-03-20_10h04.58.677,reward_learning_task,2024.2.4,None,"{'highgain': {'optimalChoice': '1.png', 'suboptimalChoice': '2.png'}, 'lowgain': {'optimalChoice': '3.png', 'suboptimalChoice': '4.png'}, 'highloss': {'optimalChoice': '5.png', 'suboptimalChoice': '6.png'}, 'lowloss': {'optimalChoice': '7.png', 'suboptimalChoice': '8.png'}}",Thu Mar 20 10:05:06 2025,2025-03-20 10h05.06.178324 -0400,1.0,
Run1,52,52,0,lowgain,1.5,1.5,0,Drift2,13,53,space,0.6774167080002371,None,None,space,0.8449099579993344,None,3.png,4.png,left,right,1,2,images/3.png,images/4.png,379.9251937500012,380.4336504580024,381.37752066600297,382.9378861660007,2,0,0.9308371250008349,0.17981999999756226,2,0,True,1,0.25,1.25,384.42482720800035,385.421625125,385.42164595800205,,,,,,,,0,0,0,0,0,52,52,52,,379.90199091700197,,,,,,,,,,,,,,,,,,,,,,,,,,,,,,,,3.png,4.png,left,right,1,2,images/3.png,images/4.png,379.9251937500012,379.89087416700204,379.90199091700197,379.90199091700197,0.0005495830009749625,380.3977264999994,380.3977264999994,380.3977264999994,380.3977264999994,380.3977264999994,380.3977264999994,380.4336504580024,381.37752066600297,382.90352729200094,382.9378861660007,2,0,0.9308371250008349,0.17981999999756226,382.90359045900186,382.9055321250016,382.9055321250016,382.9055321250016,382.9055321250016,384.4020234590025,384.4020234590025,384.4020234590025,384.4020234590025,384.390424666999,2,0,True,1,0.25,1.25,384.42482720800035,384.3918055840004,384.4020234590025,385.3887566250014,385.3872662499998,385.421625125,385.42164595800205,385.3873107090003,385.3887566250014,386.88534224999967,386.8736246670014,382.88839420899967,382.88839420899967,382.88839420899967,382.88839420899967,382.88839420899967,382.88839420899967,,,,,,,,,546421,1,A,Scan,no,2025-03-20_10h04.58.677,reward_learning_task,2024.2.4,None,"{'highgain': {'optimalChoice': '1.png', 'suboptimalChoice': '2.png'}, 'lowgain': {'optimalChoice': '3.png', 'suboptimalChoice': '4.png'}, 'highloss': {'optimalChoice': '5.png', 'suboptimalChoice': '6.png'}, 'lowloss': {'optimalChoice': '7.png', 'suboptimalChoice': '8.png'}}",Thu Mar 20 10:05:06 2025,2025-03-20 10h05.06.178324 -0400,1.25,
Run1,53,53,0,lowloss,1.0,2.0,0,Drift4,14,54,space,0.6774167080002371,None,None,space,0.8449099579993344,None,7.png,8.png,left,right,1,2,images/7.png,images/8.png,386.9085025830027,387.4195457500027,388.11094808300186,389.92116608300057,1,1,0.6776729580014944,0.1774845420004567,1,1,False,0,-0.25,1.0,391.92162912500135,392.9216457500006,392.9216696660005,,,,,,,,0,0,0,0,0,53,53,53,,386.88534224999967,,,,,,,,,,,,,,,,,,,,,,,,,,,,,,,,7.png,8.png,left,right,1,2,images/7.png,images/8.png,386.9085025830027,386.87669295900196,386.88534224999967,386.88534224999967,0.003063666998059489,387.38353587500023,387.38353587500023,387.38353587500023,387.38353587500023,387.38353587500023,387.38353587500023,387.4195457500027,388.11094808300186,389.8868082090012,389.92116608300057,1,1,0.6776729580014944,0.1774845420004567,389.889175291999,389.89154150000104,389.89154150000104,389.89154150000104,389.89154150000104,391.8903895000003,391.8903895000003,391.8903895000003,391.8903895000003,391.8872253340014,1,1,False,0,-0.25,1.0,391.92162912500135,391.88857149999967,391.8903895000003,392.88898837500165,392.88728704200184,392.9216457500006,392.9216696660005,392.8873354999996,392.88898837500165,393.8853914169995,393.8736855419993,389.8715909170023,389.8715909170023,389.8715909170023,389.8715909170023,389.8715909170023,389.8715909170023,,,,,,,,,546421,1,A,Scan,no,2025-03-20_10h04.58.677,reward_learning_task,2024.2.4,None,"{'highgain': {'optimalChoice': '1.png', 'suboptimalChoice': '2.png'}, 'lowgain': {'optimalChoice': '3.png', 'suboptimalChoice': '4.png'}, 'highloss': {'optimalChoice': '5.png', 'suboptimalChoice': '6.png'}, 'lowloss': {'optimalChoice': '7.png', 'suboptimalChoice': '8.png'}}",Thu Mar 20 10:05:06 2025,2025-03-20 10h05.06.178324 -0400,1.0,
